LabVIEW Measurement	
Writer_Version	2
Reader_Version	2
Separator	Tab
Decimal_Separator	.
Multi_Headings	Yes
X_Columns	No
Time_Pref	Relative
Operator	stud40
Description	Saved t, TC, RISC, PT100
Date	2023/03/21
Time	18:46:38.3516287803649902344
***End_of_Header***	
	
Channels	4				
Samples	1200	1200	1200	1200	
Date	2023/03/21	2023/03/21	2023/03/21	2023/03/21	
Time	18:46:38.3516287803649902344	18:46:38.3516287803649902344	18:46:38.3516287803649902344	18:46:38.3516287803649902344	
X_Dimension	Time	Time	Time	Time	
X0	0.0000000000000000E+0	0.0000000000000000E+0	0.0000000000000000E+0	0.0000000000000000E+0	
Delta_X	1.000000	1.000000	1.000000	1.000000	
***End_of_Header***					
X_Value	Untitled	Untitled 1	Untitled 2	Untitled 3	Comment
	0.000000	0.380580	-0.000168	0.098191
	0.100000	0.378524	-7.916800E-5	0.098188
	0.200000	0.379948	-0.000306	0.098192
	0.300000	0.379849	-0.000115	0.098195
	0.400000	0.378291	-0.000119	0.098185
	0.500000	0.378961	-0.000250	0.098186
	0.600000	0.379824	-0.000148	0.098192
	0.700000	0.381424	-0.000237	0.098197
	0.800000	0.379552	-0.000250	0.098195
	0.900000	0.381040	-0.000217	0.098191
	1.000000	0.381959	8.520127	0.098205
	1.100000	0.380604	9.909390	0.098196
	1.200000	0.380700	9.908384	0.098191
	1.300000	0.379394	9.908604	0.098188
	1.400000	0.379932	9.908644	0.098189
	1.500000	0.379229	9.908460	0.098196
	1.600000	0.380275	9.908700	0.098193
	1.700000	0.379132	9.908687	0.098191
	1.800000	0.381928	9.908762	0.098192
	1.900000	0.380586	9.908828	0.098188
	2.000000	0.381790	3.319189	0.098203
	2.100000	0.381809	-0.000309	0.098202
	2.200000	0.380196	-0.000418	0.098196
	2.300000	0.380136	-0.000247	0.098194
	2.400000	0.380169	-0.000405	0.098192
	2.500000	0.380594	-0.000244	0.098190
	2.600000	0.381288	-0.000355	0.098194
	2.700000	0.380360	-0.000418	0.098194
	2.800000	0.379259	-0.000454	0.098186
	2.900000	0.381137	-0.000467	0.098197
	3.000000	0.379381	-0.000313	0.098188
	3.100000	0.379824	-0.000201	0.098191
	3.200000	0.379872	-0.000332	0.098196
	3.300000	0.379100	-0.000244	0.098196
	3.400000	0.379857	-0.000309	0.098189
	3.500000	0.380052	-0.000375	0.098192
	3.600000	0.378912	-0.000204	0.098196
	3.700000	0.379970	-0.000293	0.098191
	3.800000	0.379079	-0.000405	0.098188
	3.900000	0.379726	-0.000346	0.098196
	4.000000	0.376693	-0.000332	0.098197
	4.100000	0.378971	-0.000273	0.098191
	4.200000	0.379292	-0.000448	0.098191
	4.300000	0.377770	-0.000313	0.098197
	4.400000	0.378500	-0.000362	0.098196
	4.500000	0.377297	-0.000382	0.098196
	4.600000	0.376807	-0.000303	0.098195
	4.700000	0.377565	-0.000270	0.098189
	4.800000	0.377495	-0.000253	0.098194
	4.900000	0.376955	-0.000132	0.098197
	5.000000	0.376546	-0.000230	0.098201
	5.100000	0.377394	-0.000237	0.098189
	5.200000	0.374253	-0.000198	0.098189
	5.300000	0.374355	-0.000425	0.098191
	5.400000	0.371335	-0.000421	0.098195
	5.500000	0.372415	-0.000401	0.098197
	5.600000	0.370808	-0.000224	0.098202
	5.700000	0.370289	-0.000326	0.098195
	5.800000	0.371531	-0.000323	0.098192
	5.900000	0.370668	-0.000461	0.098196
	6.000000	0.370921	-0.000401	0.098195
	6.100000	0.366975	-0.000303	0.098190
	6.200000	0.368649	-0.000346	0.098192
	6.300000	0.367083	-0.000273	0.098187
	6.400000	0.369115	-0.000132	0.098195
	6.500000	0.366582	-0.000234	0.098197
	6.600000	0.364833	-0.000319	0.098196
	6.700000	0.366107	-0.000375	0.098195
	6.800000	0.363545	-0.000230	0.098189
	6.900000	0.363173	-0.000234	0.098186
	7.000000	0.359960	-0.000286	0.098186
	7.100000	0.360707	-0.000290	0.098193
	7.200000	0.359803	-0.000280	0.098195
	7.300000	0.358313	-0.000369	0.098196
	7.400000	0.357273	-0.000283	0.098196
	7.500000	0.359063	-0.000260	0.098192
	7.600000	0.354578	-0.000184	0.098199
	7.700000	0.356457	-0.000421	0.098194
	7.800000	0.353596	-0.000326	0.098197
	7.900000	0.352558	-0.000250	0.098199
	8.000000	0.350406	-0.000244	0.098193
	8.100000	0.349986	-0.000250	0.098195
	8.200000	0.348921	-0.000313	0.098197
	8.300000	0.348072	-0.000260	0.098205
	8.400000	0.345376	-0.000323	0.097380
	8.500000	0.347481	-0.000306	0.098199
	8.600000	0.345203	-0.000257	0.098192
	8.700000	0.343532	-0.000382	0.098202
	8.800000	0.343823	-0.000392	0.098184
	8.900000	0.341182	-0.000484	0.098195
	9.000000	0.340051	-0.000487	0.098202
	9.100000	0.338834	-0.000530	0.098191
	9.200000	0.339769	-0.000530	0.098193
	9.300000	0.333821	-9.232421E-5	0.098191
	9.400000	0.336396	-0.000457	0.098196
	9.500000	0.335792	-0.000536	0.098196
	9.600000	0.334108	-0.000592	0.098194
	9.700000	0.334328	-0.000309	0.098195
	9.800000	0.331435	-0.000323	0.098194
	9.900000	0.330490	-0.000378	0.098197
	10.000000	0.329707	-0.000290	0.098198
	10.100000	0.327599	-0.000300	0.098196
	10.200000	0.326972	-0.000388	0.098191
	10.300000	0.325094	-0.000372	0.098197
	10.400000	0.327033	-0.000332	0.098188
	10.500000	0.323558	-0.000217	0.098200
	10.600000	0.323580	-0.000352	0.098201
	10.700000	0.321767	-0.000326	0.098197
	10.800000	0.321128	-0.000385	0.098195
	10.900000	0.323086	-0.000352	0.098193
	11.000000	0.320782	-0.000224	0.098197
	11.100000	0.320179	-0.000329	0.098199
	11.200000	0.318637	-0.000286	0.098196
	11.300000	0.317685	-0.000382	0.098189
	11.400000	0.318137	-0.000270	0.098192
	11.500000	0.317177	-0.000375	0.098199
	11.600000	0.316067	-0.000323	0.098198
	11.700000	0.315552	-0.000431	0.098205
	11.800000	0.315138	-0.000244	0.098189
	11.900000	0.313711	-0.000125	0.098192
	12.000000	0.314115	-0.000240	0.098195
	12.100000	0.312842	-0.000270	0.098196
	12.200000	0.314143	-0.000290	0.098202
	12.300000	0.309321	-0.000336	0.098197
	12.400000	0.310386	-0.000339	0.098196
	12.500000	0.310582	-0.000293	0.098196
	12.600000	0.307483	-0.000286	0.098200
	12.700000	0.308730	-0.000270	0.098194
	12.800000	0.305038	-0.000253	0.098195
	12.900000	0.306422	-0.000362	0.098197
	13.000000	0.306786	-0.000277	0.098193
	13.100000	0.307048	-0.000214	0.098200
	13.200000	0.304011	-0.000181	0.098200
	13.300000	0.305918	-0.000191	0.098194
	13.400000	0.303309	-0.000230	0.098194
	13.500000	0.304319	-0.000198	0.098196
	13.600000	0.302528	-0.000411	0.098191
	13.700000	0.302756	-0.000129	0.098194
	13.800000	0.302165	-0.000198	0.098191
	13.900000	0.302118	-0.000227	0.098197
	14.000000	0.301279	-0.000102	0.098196
	14.100000	0.301378	-0.000260	0.098203
	14.200000	0.298988	-0.000474	0.098194
	14.300000	0.298632	-0.000349	0.098198
	14.400000	0.299511	-0.000260	0.098205
	14.500000	0.297903	-0.000201	0.098189
	14.600000	0.297384	-0.000332	0.098203
	14.700000	0.297461	-0.000313	0.098204
	14.800000	0.295203	-0.000184	0.098196
	14.900000	0.299191	-0.000369	0.098193
	15.000000	0.295046	-0.000290	0.098194
	15.100000	0.296693	-0.000319	0.098193
	15.200000	0.294539	-0.000267	0.098189
	15.300000	0.292865	-0.000138	0.098203
	15.400000	0.296649	-0.000306	0.098197
	15.500000	0.295581	-0.000227	0.098201
	15.600000	0.293777	-0.000181	0.098194
	15.700000	0.293536	-0.000392	0.098196
	15.800000	0.294341	-0.000362	0.098201
	15.900000	0.291136	-0.000270	0.098198
	16.000000	0.291984	-0.000267	0.098193
	16.100000	0.291195	-0.000260	0.098197
	16.200000	0.293042	-0.000398	0.098196
	16.300000	0.293524	-0.000369	0.098188
	16.400000	0.293632	-0.000237	0.098199
	16.500000	0.292003	-0.000411	0.098200
	16.600000	0.290455	-0.000355	0.098202
	16.700000	0.292429	-0.000369	0.098204
	16.800000	0.292356	-0.000211	0.098197
	16.900000	0.289931	-0.000122	0.098190
	17.000000	0.291510	-0.000342	0.098194
	17.100000	0.289696	-0.000260	0.098197
	17.200000	0.291069	-0.000253	0.098195
	17.300000	0.291074	-0.000270	0.098193
	17.400000	0.291357	-0.000293	0.098197
	17.500000	0.287922	-0.000405	0.098198
	17.600000	0.289875	-0.000365	0.098203
	17.700000	0.287740	-0.000434	0.098199
	17.800000	0.288300	-0.000346	0.098192
	17.900000	0.288976	-0.000332	0.098199
	18.000000	0.289256	-0.000283	0.098193
	18.100000	0.288219	-0.000415	0.098194
	18.200000	0.288098	-0.000309	0.098206
	18.300000	0.288763	-0.000359	0.098193
	18.400000	0.290251	-0.000395	0.098194
	18.500000	0.288904	-0.000500	0.098196
	18.600000	0.289936	-0.000448	0.098195
	18.700000	0.287055	-0.000517	0.098198
	18.800000	0.287772	-0.000533	0.098196
	18.900000	0.287574	-0.000556	0.098190
	19.000000	0.288618	-0.000283	0.098200
	19.100000	0.287836	-0.000155	0.098199
	19.200000	0.288438	-0.000204	0.098192
	19.300000	0.289063	-0.000388	0.098198
	19.400000	0.287317	-0.000382	0.098192
	19.500000	0.287808	-0.000339	0.098197
	19.600000	0.287209	-0.000454	0.098203
	19.700000	0.286833	-0.000401	0.098201
	19.800000	0.286473	-0.000385	0.098204
	19.900000	0.287055	-0.000425	0.098209
	20.000000	0.287483	-0.000434	0.098193
	20.100000	0.286286	-0.000411	0.098197
	20.200000	0.286951	-0.000418	0.098200
	20.300000	0.288195	-0.000329	0.098202
	20.400000	0.287316	-0.000237	0.098189
	20.500000	0.285690	-0.000290	0.098194
	20.600000	0.287320	-0.000234	0.098199
	20.700000	0.285414	-0.000428	0.098199
	20.800000	0.285829	-3.641033E-5	0.098193
	20.900000	0.284834	-0.000240	0.098199
	21.000000	0.286269	-0.000332	0.098202
	21.100000	0.285228	-0.000244	0.098201
	21.200000	0.285636	-0.000230	0.098204
	21.300000	0.286326	-0.000207	0.098196
	21.400000	0.285073	-0.000240	0.098200
	21.500000	0.286556	-0.000178	0.098199
	21.600000	0.284964	-0.000175	0.098203
	21.700000	0.285548	-0.000253	0.098197
	21.800000	0.285168	-0.000319	0.098202
	21.900000	0.286242	-0.000217	0.098197
	22.000000	0.284967	-0.000378	0.098197
	22.100000	0.284951	-0.000434	0.098206
	22.200000	0.285883	-0.000375	0.098197
	22.300000	0.286152	-0.000290	0.098203
	22.400000	0.284116	-0.000296	0.098193
	22.500000	0.286345	-0.000214	0.098199
	22.600000	0.286393	-0.000247	0.098204
	22.700000	0.285951	-0.000290	0.098204
	22.800000	0.287040	-0.000408	0.098203
	22.900000	0.284576	-0.000372	0.098196
	23.000000	0.287664	-0.000388	0.098196
	23.100000	0.286321	-0.000388	0.098195
	23.200000	0.286160	-0.000392	0.098197
	23.300000	0.286932	-0.000388	0.098199
	23.400000	0.286934	-0.000372	0.098190
	23.500000	0.286434	-0.000283	0.098201
	23.600000	0.285953	-0.000349	0.098199
	23.700000	0.287375	-0.000408	0.098195
	23.800000	0.286673	-0.000434	0.098198
	23.900000	0.286951	-0.000286	0.098197
	24.000000	0.287607	-0.000362	0.098200
	24.100000	0.286375	-0.000359	0.098200
	24.200000	0.287064	-0.000277	0.098200
	24.300000	0.286414	-0.000326	0.098192
	24.400000	0.285971	-0.000392	0.098203
	24.500000	0.287395	-0.000362	0.098194
	24.600000	0.286651	-0.000464	0.098201
	24.700000	0.290451	-0.000490	0.098200
	24.800000	0.286357	-0.000401	0.098198
	24.900000	0.289126	-0.000378	0.098198
	25.000000	0.287228	-0.000467	0.098197
	25.100000	0.287445	-7.258990E-5	0.098200
	25.200000	0.287758	-0.000425	0.098198
	25.300000	0.288965	-0.000645	0.098195
	25.400000	0.286725	-0.000431	0.098202
	25.500000	0.286390	-0.000421	0.098192
	25.600000	0.288499	-0.000395	0.098202
	25.700000	0.287249	-0.000385	0.098202
	25.800000	0.289912	-0.000240	0.098197
	25.900000	0.288423	-0.000290	0.098202
	26.000000	0.288433	-0.000490	0.098206
	26.100000	0.288081	-0.000135	0.098189
	26.200000	0.287201	-0.000142	0.098201
	26.300000	0.288898	-3.312127E-5	0.098207
	26.400000	0.289572	-5.943369E-5	0.098207
	26.500000	0.289862	-0.000507	0.098192
	26.600000	0.288991	-0.000507	0.098204
	26.700000	0.287290	-0.000421	0.098203
	26.800000	0.290001	-0.000428	0.098198
	26.900000	0.289299	-0.000398	0.098201
	27.000000	0.289070	-0.000500	0.098203
	27.100000	0.288547	-0.000316	0.098196
	27.200000	0.288600	-0.000237	0.098196
	27.300000	0.290159	-0.000421	0.098195
	27.400000	0.288746	-0.000441	0.098203
	27.500000	0.290150	-0.000441	0.098205
	27.600000	0.288907	-0.000158	0.098196
	27.700000	0.289342	-0.000240	0.098198
	27.800000	0.289417	-0.000457	0.098200
	27.900000	0.289877	-0.000448	0.098203
	28.000000	0.290425	-0.000431	0.098190
	28.100000	0.289777	-0.000441	0.098208
	28.200000	0.291234	-0.000375	0.098202
	28.300000	0.291114	-0.000510	0.098202
	28.400000	0.291935	-0.000480	0.098199
	28.500000	0.290261	-0.000221	0.098200
	28.600000	0.291696	-0.000303	0.098201
	28.700000	0.290372	-0.000319	0.098196
	28.800000	0.293075	-0.000300	0.098202
	28.900000	0.291666	-0.000339	0.098196
	29.000000	0.292381	-0.000480	0.098202
	29.100000	0.292708	-0.000382	0.098201
	29.200000	0.294693	-0.000227	0.098201
	29.300000	0.292970	-0.000421	0.098200
	29.400000	0.294448	-0.000434	0.098197
	29.500000	0.294876	-0.000362	0.098200
	29.600000	0.293556	-0.000484	0.098208
	29.700000	0.293601	-0.000349	0.098211
	29.800000	0.294220	-0.000323	0.098189
	29.900000	0.295739	-0.000385	0.098202
	30.000000	0.296079	-0.000359	0.098205
	30.100000	0.295733	-0.000313	0.098202
	30.200000	0.295483	-0.000372	0.098201
	30.300000	0.294091	-0.000332	0.098198
	30.400000	0.293729	-0.000401	0.098201
	30.500000	0.293934	-0.000543	0.098205
	30.600000	0.295394	-0.000523	0.098199
	30.700000	0.294458	-0.000573	0.098192
	30.800000	0.294230	-0.000247	0.097149
	30.900000	0.293835	-0.000467	0.098200
	31.000000	0.293602	-0.000471	0.098195
	31.100000	0.294233	-0.000415	0.098198
	31.200000	0.294431	-0.000454	0.098205
	31.300000	0.295679	-0.000467	0.098200
	31.400000	0.292535	-0.000523	0.098204
	31.500000	0.295880	-0.000444	0.098199
	31.600000	0.296056	-0.000556	0.098201
	31.700000	0.296759	-0.000510	0.098202
	31.800000	0.296031	-0.000484	0.098207
	31.900000	0.296249	-0.000451	0.098202
	32.000000	0.297586	-0.000369	0.098202
	32.100000	0.296673	-0.000421	0.098203
	32.200000	0.295688	-0.000553	0.098203
	32.300000	0.296871	-0.000500	0.098202
	32.400000	0.298653	-0.000408	0.098196
	32.500000	0.297265	-0.000339	0.098198
	32.600000	0.297014	-0.000214	0.098193
	32.700000	0.297736	-0.000198	0.098197
	32.800000	0.297698	-0.000191	0.098201
	32.900000	0.297822	-0.000369	0.098207
	33.000000	0.298444	-0.000513	0.098201
	33.100000	0.296984	-0.000434	0.098198
	33.200000	0.298662	-0.000530	0.098200
	33.300000	0.298932	-0.000477	0.098204
	33.400000	0.297261	-0.000464	0.098194
	33.500000	0.298484	-0.000461	0.098201
	33.600000	0.298544	-0.000441	0.098205
	33.700000	0.297042	-0.000270	0.098201
	33.800000	0.300805	-0.000382	0.098201
	33.900000	0.300391	-0.000477	0.098199
	34.000000	0.299388	-0.000388	0.098199
	34.100000	0.301135	-0.000309	0.098196
	34.200000	0.299883	-0.000382	0.098199
	34.300000	0.300279	-0.000392	0.098199
	34.400000	0.301777	-0.000497	0.098201
	34.500000	0.299777	-0.000349	0.098204
	34.600000	0.299226	-0.000365	0.098202
	34.700000	0.300779	-0.000411	0.098197
	34.800000	0.301319	-0.000441	0.098205
	34.900000	0.301394	-0.000438	0.098205
	35.000000	0.300705	-0.000579	0.098195
	35.100000	0.300734	-0.000388	0.098202
	35.200000	0.298961	-0.000457	0.098202
	35.300000	0.299026	-0.000395	0.098202
	35.400000	0.300339	-0.000355	0.098203
	35.500000	0.300225	-0.000425	0.098200
	35.600000	0.298264	-0.000346	0.098205
	35.700000	0.301770	-0.000448	0.098204
	35.800000	0.301913	-0.000507	0.098195
	35.900000	0.301066	-0.000425	0.098198
	36.000000	0.302457	-0.000280	0.098207
	36.100000	0.301498	-0.000369	0.098203
	36.200000	0.299756	-0.000260	0.098202
	36.300000	0.302239	-0.000431	0.098197
	36.400000	0.302668	-0.000563	0.098207
	36.500000	0.303059	-0.000306	0.098201
	36.600000	0.301968	-0.000378	0.098203
	36.700000	0.304397	-0.000332	0.098196
	36.800000	0.303886	-0.000405	0.098206
	36.900000	0.303955	-0.000385	0.098201
	37.000000	0.302223	-0.000303	0.098203
	37.100000	0.303850	-0.000408	0.098205
	37.200000	0.304263	-0.000405	0.098207
	37.300000	0.306035	-0.000359	0.098200
	37.400000	0.306678	-0.000352	0.098204
	37.500000	0.304074	-0.000401	0.098204
	37.600000	0.305051	-0.000369	0.098205
	37.700000	0.303789	-0.000438	0.098199
	37.800000	0.306648	-0.000184	0.098209
	37.900000	0.305168	-0.000207	0.098196
	38.000000	0.304722	-0.000280	0.098202
	38.100000	0.306220	-0.000102	0.098203
	38.200000	0.305535	-0.000543	0.098206
	38.300000	0.306981	-0.000395	0.098192
	38.400000	0.305443	-0.000369	0.098207
	38.500000	0.307012	-0.000313	0.098202
	38.600000	0.305746	-0.000378	0.098205
	38.700000	0.306819	-0.000323	0.098205
	38.800000	0.306827	-0.000184	0.098201
	38.900000	0.307661	-0.000405	0.098205
	39.000000	0.306414	-0.000503	0.098202
	39.100000	0.306417	-0.000421	0.098205
	39.200000	0.309446	-0.000569	0.098196
	39.300000	0.308917	-0.000392	0.098197
	39.400000	0.308671	-0.000378	0.098207
	39.500000	0.308939	-0.000474	0.098207
	39.600000	0.308964	-0.000263	0.098198
	39.700000	0.309862	-0.000270	0.098205
	39.800000	0.307396	-0.000303	0.098207
	39.900000	0.309715	-0.000224	0.098204
	40.000000	0.307754	-0.000309	0.098206
	40.100000	0.309659	-0.000316	0.098196
	40.200000	0.308877	-0.000401	0.098208
	40.300000	0.310931	-0.000448	0.098198
	40.400000	0.309025	-0.000388	0.098201
	40.500000	0.310454	-0.000372	0.098205
	40.600000	0.310264	-0.000494	0.098202
	40.700000	0.310083	-0.000490	0.098197
	40.800000	0.311912	-0.000464	0.098205
	40.900000	0.309608	-0.000480	0.098203
	41.000000	0.310179	-0.000415	0.098202
	41.100000	0.309463	-0.000415	0.098208
	41.200000	0.308278	-0.000382	0.098200
	41.300000	0.309733	-0.000494	0.098207
	41.400000	0.309616	-0.000250	0.098207
	41.500000	0.309431	-0.000378	0.098200
	41.600000	0.309610	-0.000270	0.098203
	41.700000	0.309019	-0.000375	0.098206
	41.800000	0.310798	-0.000280	0.098202
	41.900000	0.310128	-0.000398	0.098206
	42.000000	0.311518	-0.000517	0.098205
	42.100000	0.309141	-0.000336	0.098206
	42.200000	0.309110	-0.000355	0.098200
	42.300000	0.310751	-0.000326	0.098204
	42.400000	0.308661	-0.000530	0.098198
	42.500000	0.310289	-0.000428	0.098210
	42.600000	0.310916	-0.000418	0.098199
	42.700000	0.311394	-0.000425	0.098204
	42.800000	0.309968	-0.000263	0.098202
	42.900000	0.312079	-0.000431	0.098202
	43.000000	0.310632	-0.000296	0.098212
	43.100000	0.314028	-0.000401	0.098198
	43.200000	0.312670	-0.000339	0.098206
	43.300000	0.313689	-0.000401	0.098203
	43.400000	0.312439	-0.000300	0.098208
	43.500000	0.312979	-0.000313	0.098208
	43.600000	0.312609	-0.000319	0.098201
	43.700000	0.312625	-0.000359	0.098207
	43.800000	0.314111	-0.000326	0.098207
	43.900000	0.312899	-0.000359	0.098201
	44.000000	0.313126	-0.000428	0.098205
	44.100000	0.313990	-0.000346	0.098205
	44.200000	0.313094	-0.000444	0.098203
	44.300000	0.316402	-0.000444	0.098203
	44.400000	0.315661	-0.000451	0.098205
	44.500000	0.315990	-0.000378	0.098200
	44.600000	0.315419	-0.000319	0.098211
	44.700000	0.317087	-0.000480	0.098208
	44.800000	0.315747	-0.000382	0.098209
	44.900000	0.317322	-0.000237	0.098208
	45.000000	0.315479	-0.000372	0.098205
	45.100000	0.317512	-0.000369	0.098205
	45.200000	0.316421	-0.000484	0.098204
	45.300000	0.318806	-0.000392	0.098209
	45.400000	0.318971	-0.000273	0.098209
	45.500000	0.318021	-0.000392	0.098207
	45.600000	0.318625	-0.000441	0.098204
	45.700000	0.316713	-0.000355	0.098204
	45.800000	0.320463	-0.000441	0.098209
	45.900000	0.320329	-0.000448	0.098205
	46.000000	0.318041	-0.000316	0.098200
	46.100000	0.318633	-0.000451	0.098203
	46.200000	0.321158	-0.000411	0.098203
	46.300000	0.318650	-0.000454	0.098205
	46.400000	0.317693	-0.000457	0.098205
	46.500000	0.321370	-0.000382	0.098213
	46.600000	0.319618	-0.000461	0.098204
	46.700000	0.319198	-0.000378	0.098203
	46.800000	0.318565	-0.000293	0.098206
	46.900000	0.318540	-0.000418	0.098210
	47.000000	0.321196	-0.000411	0.098204
	47.100000	0.318543	-0.000342	0.098205
	47.200000	0.321018	-0.000250	0.098211
	47.300000	0.319698	-0.000385	0.098208
	47.400000	0.322571	-0.000385	0.098203
	47.500000	0.321522	-0.000385	0.098204
	47.600000	0.321655	-0.000375	0.098199
	47.700000	0.321315	-0.000207	0.098205
	47.800000	0.323155	-0.000253	0.098205
	47.900000	0.323732	-0.000326	0.098207
	48.000000	0.323646	-0.000293	0.098200
	48.100000	0.321147	-0.000395	0.098206
	48.200000	0.320543	-0.000589	0.098208
	48.300000	0.321737	-0.000530	0.098201
	48.400000	0.323662	-0.000365	0.098216
	48.500000	0.321484	-0.000540	0.098208
	48.600000	0.322619	-0.000441	0.098206
	48.700000	0.322734	-0.000401	0.098200
	48.800000	0.323135	-0.000408	0.098199
	48.900000	0.323056	-0.000385	0.098206
	49.000000	0.325299	-0.000533	0.098206
	49.100000	0.323986	-0.000507	0.098208
	49.200000	0.322944	-0.000480	0.098207
	49.300000	0.324558	-0.000533	0.098206
	49.400000	0.325583	-0.000355	0.098210
	49.500000	0.325591	-0.000365	0.098209
	49.600000	0.323807	-0.000385	0.098214
	49.700000	0.325112	-0.000438	0.098205
	49.800000	0.322846	-0.000523	0.098205
	49.900000	0.324668	-0.000480	0.098207
	50.000000	0.326236	-0.000553	0.098209
	50.100000	0.322240	-0.000573	0.098204
	50.200000	0.324933	-0.000487	0.098208
	50.300000	0.321754	-0.000480	0.098208
	50.400000	0.322745	-0.000517	0.098207
	50.500000	0.323591	-0.000605	0.098114
	50.600000	0.323436	-0.000125	0.098207
	50.700000	0.323803	-0.000576	0.098212
	50.800000	0.325639	-0.000569	0.098212
	50.900000	0.324700	-0.000451	0.098204
	51.000000	0.325499	-0.000392	0.098202
	51.100000	0.323068	-0.000477	0.098209
	51.200000	0.325673	-0.000484	0.098204
	51.300000	0.321592	-0.000316	0.098206
	51.400000	0.325418	-0.000372	0.098204
	51.500000	0.323622	-0.000375	0.098200
	51.600000	0.323836	-0.000293	0.098203
	51.700000	0.323015	-0.000339	0.098214
	51.800000	0.322769	-0.000421	0.098204
	51.900000	0.324692	-0.000392	0.098209
	52.000000	0.323458	-0.000313	0.098209
	52.100000	0.326195	-0.000421	0.098214
	52.200000	0.325359	-0.000257	0.098203
	52.300000	0.324683	-0.000224	0.098212
	52.400000	0.324796	-0.000326	0.098203
	52.500000	0.325802	-0.000250	0.098214
	52.600000	0.326564	-0.000352	0.098206
	52.700000	0.326361	-0.000444	0.098209
	52.800000	0.326294	-0.000421	0.098201
	52.900000	0.325786	-0.000418	0.098210
	53.000000	0.325945	-0.000326	0.098208
	53.100000	0.329071	-0.000359	0.098201
	53.200000	0.328435	-0.000303	0.098206
	53.300000	0.325715	-0.000129	0.098211
	53.400000	0.327680	-0.000319	0.098202
	53.500000	0.327075	-0.000362	0.098207
	53.600000	0.327824	-0.000401	0.098212
	53.700000	0.328444	-0.000332	0.098210
	53.800000	0.328224	-0.000467	0.098206
	53.900000	0.326616	-0.000375	0.098204
	54.000000	0.326926	-0.000362	0.098212
	54.100000	0.328077	-0.000467	0.098206
	54.200000	0.329919	-0.000329	0.098207
	54.300000	0.327158	-0.000339	0.098203
	54.400000	0.327806	-0.000352	0.098210
	54.500000	0.329233	-0.000438	0.098205
	54.600000	0.325952	-0.000451	0.098207
	54.700000	0.329408	-0.000372	0.098210
	54.800000	0.327377	-0.000477	0.098204
	54.900000	0.328891	-0.000434	0.098202
	55.000000	0.330848	-0.000303	0.098209
	55.100000	0.328880	-0.000283	0.098206
	55.200000	0.329519	-0.000372	0.098205
	55.300000	0.329928	-0.000438	0.098214
	55.400000	0.330418	-0.000487	0.098208
	55.500000	0.329294	-0.000411	0.098211
	55.600000	0.332593	-0.000408	0.098207
	55.700000	0.330607	-0.000434	0.098209
	55.800000	0.330529	-0.000296	0.098205
	55.900000	0.331692	-0.000359	0.098207
	56.000000	0.331907	-0.000464	0.098211
	56.100000	0.332376	-0.000441	0.098205
	56.200000	0.330154	-0.000517	0.098203
	56.300000	0.332446	-0.000425	0.098204
	56.400000	0.332279	-0.000550	0.098207
	56.500000	0.332116	-0.000444	0.098208
	56.600000	0.331549	-0.000477	0.098213
	56.700000	0.331138	-0.000411	0.098213
	56.800000	0.331179	-0.000273	0.098210
	56.900000	0.332716	-0.000434	0.098206
	57.000000	0.329628	-0.000319	0.098210
	57.100000	0.332418	-0.000497	0.098214
	57.200000	0.332071	-0.000622	0.098204
	57.300000	0.333316	-9.232421E-5	0.098208
	57.400000	0.334334	-0.000129	0.098207
	57.500000	0.333443	-0.000526	0.098204
	57.600000	0.335710	-0.000510	0.098202
	57.700000	0.334600	-0.000569	0.098214
	57.800000	0.332986	-0.000378	0.098209
	57.900000	0.332160	-0.000619	0.098207
	58.000000	0.333279	-0.000556	0.098207
	58.100000	0.334074	-0.000444	0.098206
	58.200000	0.334740	-0.000497	0.098210
	58.300000	0.332985	-0.000418	0.098211
	58.400000	0.334418	-0.000556	0.098205
	58.500000	0.334193	-0.000563	0.098202
	58.600000	0.336076	-0.000550	0.098213
	58.700000	0.335201	-0.000523	0.098211
	58.800000	0.334215	-0.000277	0.098202
	58.900000	0.335486	-0.000224	0.098206
	59.000000	0.332814	-0.000240	0.098210
	59.100000	0.333455	-0.000418	0.098204
	59.200000	0.334956	-0.000392	0.098205
	59.300000	0.333470	-0.000388	0.098204
	59.400000	0.336566	-0.000283	0.098212
	59.500000	0.337131	-0.000300	0.098204
	59.600000	0.337947	-0.000438	0.098210
	59.700000	0.336896	-0.000326	0.098210
	59.800000	0.337697	-0.000240	0.098204
	59.900000	0.335913	-0.000503	0.098201
	60.000000	0.339166	-0.000306	0.098212
	60.100000	0.338239	-0.000359	0.098205
	60.200000	0.336708	-0.000184	0.098210
	60.300000	0.336794	-0.000224	0.098203
	60.400000	0.338611	-3.969938E-5	0.098207
	60.500000	0.337266	-0.000175	0.098208
	60.600000	0.337098	-0.000191	0.098210
	60.700000	0.339479	-0.000270	0.098205
	60.800000	0.337615	-0.000181	0.098211
	60.900000	0.338684	-0.000260	0.098208
	61.000000	0.336741	-0.000263	0.098209
	61.100000	0.338195	-0.000273	0.098211
	61.200000	0.336769	-0.000346	0.098202
	61.300000	0.337923	-0.000355	0.098209
	61.400000	0.337388	-0.000221	0.098205
	61.500000	0.338626	-0.000369	0.098211
	61.600000	0.338946	-0.000316	0.098209
	61.700000	0.337608	-0.000378	0.098208
	61.800000	0.338620	-0.000323	0.098203
	61.900000	0.339555	-0.000365	0.098208
	62.000000	0.338060	-0.000382	0.098211
	62.100000	0.338440	-0.000425	0.098207
	62.200000	0.339379	-0.000306	0.098207
	62.300000	0.337569	-0.000355	0.098208
	62.400000	0.338842	-0.000378	0.098205
	62.500000	0.338896	-0.000346	0.098205
	62.600000	0.339308	-0.000388	0.098210
	62.700000	0.339240	-0.000300	0.098213
	62.800000	0.338054	-0.000385	0.098203
	62.900000	0.339553	-0.000365	0.098205
	63.000000	0.341625	-0.000303	0.098202
	63.100000	0.339678	-0.000244	0.098210
	63.200000	0.340548	-0.000280	0.098202
	63.300000	0.338739	-0.000217	0.098207
	63.400000	0.340232	-0.000125	0.098209
	63.500000	0.339996	-0.000257	0.098212
	63.600000	0.339722	-0.000401	0.098206
	63.700000	0.336361	-0.000372	0.098208
	63.800000	0.339742	-0.000277	0.098213
	63.900000	0.339644	-0.000352	0.098208
	64.000000	0.341176	-0.000109	0.098209
	64.100000	0.341091	-0.000181	0.098211
	64.200000	0.341566	-0.000395	0.098209
	64.300000	0.340082	-0.000418	0.098213
	64.400000	0.340635	-0.000359	0.098202
	64.500000	0.340644	-0.000408	0.098210
	64.600000	0.341806	-0.000201	0.098209
	64.700000	0.338903	-0.000280	0.098205
	64.800000	0.339911	-0.000323	0.098208
	64.900000	0.338981	-0.000563	0.098209
	65.000000	0.341078	-0.000316	0.098210
	65.100000	0.341874	-0.000369	0.098208
	65.200000	0.340900	-0.000444	0.098209
	65.300000	0.341846	-0.000428	0.098205
	65.400000	0.342158	-0.000253	0.098206
	65.500000	0.342460	-0.000375	0.098203
	65.600000	0.342529	-0.000194	0.098203
	65.700000	0.342075	-0.000372	0.098206
	65.800000	0.343118	-0.000375	0.098208
	65.900000	0.343224	-0.000454	0.098206
	66.000000	0.341622	-0.000392	0.098201
	66.100000	0.343739	-0.000375	0.098209
	66.200000	0.342310	-0.000378	0.098207
	66.300000	0.343128	-0.000375	0.098210
	66.400000	0.343247	-0.000378	0.098205
	66.500000	0.344762	-0.000408	0.098204
	66.600000	0.344186	-0.000421	0.098208
	66.700000	0.342189	-0.000375	0.098202
	66.800000	0.344750	-0.000494	0.098207
	66.900000	0.343689	-0.000418	0.098207
	67.000000	0.344429	-0.000296	0.098213
	67.100000	0.344479	-0.000454	0.098211
	67.200000	0.343449	-0.000487	0.098204
	67.300000	0.345698	-0.000471	0.098204
	67.400000	0.345357	-0.000579	0.098213
	67.500000	0.344350	-0.000434	0.098208
	67.600000	0.344454	-0.000428	0.098207
	67.700000	0.344943	-0.000306	0.098210
	67.800000	0.342444	-0.000280	0.098213
	67.900000	0.344569	-0.000359	0.098206
	68.000000	0.342893	-0.000290	0.098207
	68.100000	0.343881	-0.000411	0.098209
	68.200000	0.344734	-0.000461	0.098205
	68.300000	0.344034	-0.000401	0.098202
	68.400000	0.342597	-0.000425	0.098205
	68.500000	0.345169	-0.000398	0.098208
	68.600000	0.343517	-0.000457	0.098207
	68.700000	0.343304	-0.000464	0.098211
	68.800000	0.344562	-0.000487	0.098210
	68.900000	0.345501	-0.000563	0.098207
	69.000000	0.343764	-0.000573	0.098204
	69.100000	0.344268	-0.000454	0.098212
	69.200000	0.343665	-0.000454	0.098205
	69.300000	0.344471	-0.000500	0.098207
	69.400000	0.345305	-0.000523	0.098210
	69.500000	0.345899	-0.000392	0.098206
	69.600000	0.344952	-0.000438	0.098204
	69.700000	0.343710	-0.000316	0.098205
	69.800000	0.345462	-0.000375	0.098207
	69.900000	0.344757	-0.000369	0.098205
	70.000000	0.344256	-0.000487	0.098206
	70.100000	0.344487	-0.000411	0.098205
	70.200000	0.345164	-0.000398	0.098203
	70.300000	0.347146	-0.000494	0.098208
	70.400000	0.345347	-0.000461	0.098212
	70.500000	0.345618	-0.000434	0.098209
	70.600000	0.346266	-0.000313	0.098203
	70.700000	0.344253	-0.000405	0.098210
	70.800000	0.344288	-0.000280	0.098208
	70.900000	0.345190	-0.000300	0.098202
	71.000000	0.345088	-0.000355	0.098204
	71.100000	0.345214	-0.000415	0.098215
	71.200000	0.343899	-0.000520	0.098210
	71.300000	0.345775	-0.000316	0.098218
	71.400000	0.346176	-0.000408	0.098211
	71.500000	0.345418	-0.000346	0.098206
	71.600000	0.344759	-0.000523	0.098204
	71.700000	0.346241	-0.000573	0.098209
	71.800000	0.344953	-0.000467	0.098210
	71.900000	0.346022	-0.000494	0.098207
	72.000000	0.346140	-0.000559	0.098207
	72.100000	0.345494	-0.000543	0.098212
	72.200000	0.347021	-0.000451	0.098209
	72.300000	0.347963	-1.009791E-5	0.098203
	72.400000	0.346481	-0.000418	0.098203
	72.500000	0.345654	-0.000388	0.098209
	72.600000	0.348799	-0.000461	0.098205
	72.700000	0.348877	-0.000257	0.098211
	72.800000	0.348947	-0.000352	0.098210
	72.900000	0.345695	-0.000510	0.098206
	73.000000	0.348309	-0.000480	0.098208
	73.100000	0.348499	-0.000441	0.098208
	73.200000	0.348448	-0.000431	0.098203
	73.300000	0.348500	-0.000461	0.098207
	73.400000	0.348061	-0.000408	0.098209
	73.500000	0.351156	-0.000260	0.098208
	73.600000	0.348946	-0.000237	0.098210
	73.700000	0.351386	-0.000375	0.098199
	73.800000	0.351455	-0.000431	0.098212
	73.900000	0.351608	-0.000573	0.098210
	74.000000	0.350767	-0.000342	0.098211
	74.100000	0.349983	-0.000306	0.098207
	74.200000	0.348858	-0.000451	0.098211
	74.300000	0.350496	-0.000401	0.098208
	74.400000	0.349283	-0.000332	0.098203
	74.500000	0.351040	-0.000250	0.098206
	74.600000	0.349815	-0.000332	0.098205
	74.700000	0.350477	-0.000441	0.098204
	74.800000	0.349380	-0.000385	0.098213
	74.900000	0.351425	-0.000296	0.098216
	75.000000	0.350647	-0.000355	0.098209
	75.100000	0.352292	-0.000421	0.098207
	75.200000	0.351871	-0.000355	0.098208
	75.300000	0.349891	-0.000309	0.098204
	75.400000	0.352670	-0.000313	0.098201
	75.500000	0.352155	-0.000385	0.098207
	75.600000	0.351004	-0.000283	0.098207
	75.700000	0.350438	-0.000339	0.098207
	75.800000	0.352011	-0.000270	0.098212
	75.900000	0.350932	-0.000293	0.098213
	76.000000	0.349336	-0.000365	0.098201
	76.100000	0.351116	-0.000329	0.098208
	76.200000	0.351523	-0.000270	0.098207
	76.300000	0.351430	-0.000313	0.098212
	76.400000	0.351455	-0.000280	0.098210
	76.500000	0.354398	-0.000359	0.098210
	76.600000	0.349258	-0.000431	0.098215
	76.700000	0.352069	-0.000214	0.098210
	76.800000	0.353669	-0.000263	0.098209
	76.900000	0.352691	-0.000451	0.098208
	77.000000	0.352218	-0.000300	0.098210
	77.100000	0.352046	-0.000319	0.098204
	77.200000	0.353018	-0.000425	0.098202
	77.300000	0.351210	-0.000375	0.098205
	77.400000	0.354112	-0.000293	0.098212
	77.500000	0.353600	-0.000253	0.098208
	77.600000	0.351992	-0.000346	0.098204
	77.700000	0.351581	-0.000375	0.098208
	77.800000	0.353234	-0.000385	0.098208
	77.900000	0.351528	-0.000500	0.098213
	78.000000	0.351498	-0.000421	0.098210
	78.100000	0.353375	-0.000339	0.098213
	78.200000	0.351299	-0.000277	0.098215
	78.300000	0.352823	-0.000378	0.098216
	78.400000	0.349885	-0.000490	0.098206
	78.500000	0.350177	-0.000408	0.098207
	78.600000	0.351337	-0.000385	0.098209
	78.700000	0.350072	-0.000408	0.098204
	78.800000	0.350373	-0.000211	0.098208
	78.900000	0.352358	-0.000372	0.098198
	79.000000	0.352996	-0.000372	0.098209
	79.100000	0.350093	-0.000411	0.098206
	79.200000	0.353770	-0.000431	0.098215
	79.300000	0.352011	-0.000375	0.098209
	79.400000	0.352486	-0.000319	0.098212
	79.500000	0.353841	-0.000270	0.098210
	79.600000	0.351658	-0.000378	0.098211
	79.700000	0.351414	-0.000573	0.098203
	79.800000	0.352038	-0.000306	0.098210
	79.900000	0.352667	-0.000517	0.098203
	80.000000	0.353318	-0.000507	0.098210
	80.100000	0.353559	-0.000526	0.098200
	80.200000	0.353551	-0.000487	0.098206
	80.300000	0.352574	-0.000418	0.098214
	80.400000	0.354029	-0.000425	0.098200
	80.500000	0.354295	-0.000398	0.098207
	80.600000	0.353607	-0.000451	0.098205
	80.700000	0.353565	-0.000342	0.098213
	80.800000	0.353113	-0.000161	0.098214
	80.900000	0.354366	-0.000188	0.098213
	81.000000	0.354541	-0.000244	0.098202
	81.100000	0.356341	-0.000704	0.098205
	81.200000	0.356795	-0.000398	0.098211
	81.300000	0.353458	-0.000375	0.098201
	81.400000	0.355047	-0.000385	0.098207
	81.500000	0.355465	-0.000454	0.098214
	81.600000	0.355011	-0.000398	0.098209
	81.700000	0.356002	-0.000586	0.098215
	81.800000	0.355648	-0.000448	0.098203
	81.900000	0.357234	-0.000513	0.098222
	82.000000	0.355093	-0.000434	0.098213
	82.100000	0.355511	-0.000454	0.098205
	82.200000	0.355895	-0.000349	0.098200
	82.300000	0.354610	-0.000415	0.098206
	82.400000	0.355546	-0.000533	0.098209
	82.500000	0.354578	-0.000523	0.098204
	82.600000	0.356577	-0.000500	0.098206
	82.700000	0.354765	-0.000484	0.098207
	82.800000	0.363785	-0.000596	0.098211
	82.900000	0.355271	-0.000500	0.098203
	83.000000	0.360545	-0.000559	0.098214
	83.100000	0.365482	-0.000510	0.098209
	83.200000	0.357671	-0.000589	0.098213
	83.300000	0.357275	-0.000487	0.098212
	83.400000	0.355610	-0.000520	0.098206
	83.500000	0.356686	-0.000526	0.098207
	83.600000	0.356600	-8.574610E-5	0.098213
	83.700000	0.357024	-0.000388	0.098208
	83.800000	0.358942	-0.000596	0.098200
	83.900000	0.357554	-0.000635	0.098212
	84.000000	0.356286	-0.000540	0.098211
	84.100000	0.362028	-0.000464	0.098202
	84.200000	0.358159	-0.000342	0.098203
	84.300000	0.358648	-0.000457	0.098213
	84.400000	0.358370	-0.000461	0.098205
	84.500000	0.355056	-0.000280	0.098208
	84.600000	0.357948	-0.000352	0.098205
	84.700000	0.357534	-0.000425	0.098215
	84.800000	0.358246	-0.000401	0.098210
	84.900000	0.358622	-0.000441	0.098203
	85.000000	0.363906	-0.000444	0.098203
	85.100000	0.358102	-0.000332	0.098205
	85.200000	0.358214	-0.000398	0.098208
	85.300000	0.359951	-0.000392	0.098209
	85.400000	0.359695	-0.000378	0.098203
	85.500000	0.358560	-0.000415	0.098207
	85.600000	0.359049	-0.000556	0.098205
	85.700000	0.360344	-0.000563	0.098210
	85.800000	0.359496	-0.000546	0.098212
	85.900000	0.358736	-0.000382	0.098208
	86.000000	0.360209	-0.000303	0.098208
	86.100000	0.357902	-0.000392	0.098209
	86.200000	0.360593	-0.000451	0.098205
	86.300000	0.359599	-0.000263	0.098211
	86.400000	0.358411	-0.000385	0.098202
	86.500000	0.357069	-0.000457	0.098214
	86.600000	0.360820	-0.000257	0.098205
	86.700000	0.360337	-0.000431	0.098212
	86.800000	0.356847	-0.000332	0.098205
	86.900000	0.359658	-0.000313	0.098211
	87.000000	0.360615	-0.000125	0.098202
	87.100000	0.359709	-0.000309	0.098201
	87.200000	0.359869	-0.000355	0.098205
	87.300000	0.361329	-0.000309	0.098211
	87.400000	0.360092	-0.000286	0.098207
	87.500000	0.359194	-0.000280	0.098203
	87.600000	0.358724	-0.000227	0.098207
	87.700000	0.358962	-0.000474	0.098212
	87.800000	0.357769	-0.000355	0.098212
	87.900000	0.360640	-0.000329	0.098209
	88.000000	0.358866	-0.000421	0.098204
	88.100000	0.359882	-0.000464	0.098205
	88.200000	0.358734	-0.000405	0.098204
	88.300000	0.359400	-0.000263	0.098206
	88.400000	0.359893	-0.000339	0.098209
	88.500000	0.358996	-0.000332	0.098203
	88.600000	0.357249	-0.000342	0.098204
	88.700000	0.361306	-0.000280	0.098205
	88.800000	0.360590	-0.000346	0.098219
	88.900000	0.361039	-0.000329	0.098204
	89.000000	0.359312	-0.000198	0.098214
	89.100000	0.360422	-0.000303	0.098205
	89.200000	0.361039	-0.000372	0.098212
	89.300000	0.361617	-0.000494	0.098212
	89.400000	0.361381	-0.000431	0.098212
	89.500000	0.360677	-0.000385	0.098208
	89.600000	0.359583	-0.000474	0.098205
	89.700000	0.362506	-0.000546	0.098213
	89.800000	0.359839	-0.000425	0.098208
	89.900000	0.362442	-0.000467	0.098206
	90.000000	0.361482	-0.000494	0.098209
	90.100000	0.358437	-0.000579	0.098213
	90.200000	0.359002	-0.000477	0.098209
	90.300000	0.361090	-0.000253	0.098209
	90.400000	0.358763	-0.000152	0.098200
	90.500000	0.362697	-0.000181	0.098211
	90.600000	0.361124	-0.000290	0.098206
	90.700000	0.356268	-0.000477	0.098206
	90.800000	0.359710	-0.000365	0.098207
	90.900000	0.359426	-0.000207	0.097807
	91.000000	0.360668	-8.574610E-5	0.098206
	91.100000	0.360395	-0.000207	0.098206
	91.200000	0.363561	-0.000178	0.098215
	91.300000	0.360001	-0.000191	0.098207
	91.400000	0.360419	-7.916800E-5	0.098200
	91.500000	0.361155	-4.627748E-5	0.098204
	91.600000	0.361924	-0.000253	0.098204
	91.700000	0.359279	-0.000382	0.098207
	91.800000	0.360317	-0.000109	0.098208
	91.900000	0.360666	-0.000503	0.098208
	92.000000	0.360985	-0.000671	0.098199
	92.100000	0.361708	-0.000342	0.098210
	92.200000	0.362278	-0.000530	0.098205
	92.300000	0.363617	-0.000536	0.098211
	92.400000	0.363735	-0.000642	0.098208
	92.500000	0.362369	-0.000263	0.098206
	92.600000	0.364271	-0.000204	0.098207
	92.700000	0.360520	-0.000247	0.098203
	92.800000	0.360476	-9.890231E-5	0.098202
	92.900000	0.361663	-0.000234	0.098217
	93.000000	0.360206	-0.000260	0.098213
	93.100000	0.361344	-0.000438	0.098209
	93.200000	0.361368	-0.000536	0.098214
	93.300000	0.361710	-0.000586	0.098206
	93.400000	0.361829	-0.000559	0.098206
	93.500000	0.361650	-0.000375	0.098210
	93.600000	0.360594	-0.000214	0.098210
	93.700000	0.361467	-0.000392	0.098208
	93.800000	0.361366	-0.000451	0.098206
	93.900000	0.362590	-0.000401	0.098206
	94.000000	0.362003	-0.000415	0.098214
	94.100000	0.362041	-0.000398	0.098211
	94.200000	0.362308	-0.000323	0.098203
	94.300000	0.363024	-0.000332	0.098214
	94.400000	0.361079	-0.000296	0.098208
	94.500000	0.360343	-0.000451	0.098207
	94.600000	0.362618	-0.000415	0.098209
	94.700000	0.359446	-0.000359	0.098204
	94.800000	0.359279	-0.000336	0.098211
	94.900000	0.359608	-0.000405	0.098208
	95.000000	0.359528	-0.000405	0.098210
	95.100000	0.359539	-0.000342	0.098204
	95.200000	0.360259	-0.000421	0.098210
	95.300000	0.361681	-0.000313	0.098214
	95.400000	0.361122	-0.000323	0.098206
	95.500000	0.361894	-0.000306	0.098212
	95.600000	0.360204	-0.000441	0.098208
	95.700000	0.360305	-0.000359	0.098205
	95.800000	0.360720	-0.000418	0.098207
	95.900000	0.361644	-0.000454	0.098208
	96.000000	0.361110	-0.000392	0.098210
	96.100000	0.360866	-0.000451	0.098213
	96.200000	0.362692	-0.000454	0.098207
	96.300000	0.362951	-0.000457	0.098209
	96.400000	0.361666	-0.000240	0.098207
	96.500000	0.362312	-4.627748E-5	0.098203
	96.600000	0.362228	6.226123E-5	0.098212
	96.700000	0.361575	-0.000550	0.098209
	96.800000	0.362492	-0.000510	0.098204
	96.900000	0.362366	-0.000454	0.098205
	97.000000	0.361611	-0.000494	0.098213
	97.100000	0.363078	-0.000283	0.098208
	97.200000	0.362074	-0.000405	0.098212
	97.300000	0.362273	-0.000352	0.098206
	97.400000	0.362933	-0.000448	0.098213
	97.500000	0.361964	-0.000461	0.098206
	97.600000	0.363029	-0.000375	0.098211
	97.700000	0.361313	-0.000398	0.098206
	97.800000	0.360970	-0.000405	0.098207
	97.900000	0.361905	-0.000408	0.098206
	98.000000	0.361734	-0.000313	0.098213
	98.100000	0.361939	-0.000428	0.098212
	98.200000	0.362926	-0.000316	0.098203
	98.300000	0.363916	-0.000336	0.098199
	98.400000	0.361587	-0.000382	0.098209
	98.500000	0.362946	-0.000372	0.098203
	98.600000	0.362760	-0.000553	0.098204
	98.700000	0.364148	-0.000365	0.098207
	98.800000	0.362493	-0.000385	0.098208
	98.900000	0.362332	-0.000448	0.098206
	99.000000	0.362175	-0.000306	0.098209
	99.100000	0.362887	-0.000365	0.098206
	99.200000	0.363891	-0.000408	0.098202
	99.300000	0.363696	-0.000517	0.098212
	99.400000	0.361053	-0.000434	0.098209
	99.500000	0.361492	-0.000526	0.098206
	99.600000	0.363429	-0.000158	0.098205
	99.700000	0.363678	-0.000184	0.098201
	99.800000	0.362740	-5.943369E-5	0.098207
	99.900000	0.364356	-0.000487	0.098213
	100.000000	0.365039	-0.000395	0.098202
	100.100000	0.362178	-0.000125	0.098207
	100.200000	0.362763	-0.000497	0.098202
	100.300000	0.360997	-0.000385	0.098206
	100.400000	0.361319	-0.000244	0.098200
	100.500000	0.360900	-0.000507	0.098211
	100.600000	0.362389	-0.000484	0.098204
	100.700000	0.362784	-0.000477	0.098204
	100.800000	0.362072	-0.000474	0.098210
	100.900000	0.363128	-0.000497	0.098209
	101.000000	0.362431	-0.000480	0.098207
	101.100000	0.362944	-0.000349	0.098210
	101.200000	0.365233	-0.000546	0.098204
	101.300000	0.364218	-0.000494	0.098210
	101.400000	0.362657	-0.000500	0.098206
	101.500000	0.364398	-0.000428	0.098211
	101.600000	0.363663	-0.000484	0.098211
	101.700000	0.362892	-0.000441	0.098212
	101.800000	0.364161	-0.000372	0.098209
	101.900000	0.361425	-0.000329	0.098204
	102.000000	0.363934	-0.000398	0.098206
	102.100000	0.363724	-0.000188	0.098206
	102.200000	0.362259	-0.000319	0.098207
	102.300000	0.364005	-0.000346	0.098206
	102.400000	0.361900	-0.000313	0.098211
	102.500000	0.363727	-0.000388	0.098210
	102.600000	0.362858	-0.000471	0.098207
	102.700000	0.363811	-0.000431	0.098207
	102.800000	0.363105	-0.000464	0.098205
	102.900000	0.363722	-0.000309	0.098212
	103.000000	0.363428	-0.000329	0.098209
	103.100000	0.364633	-0.000293	0.098209
	103.200000	0.364481	-0.000398	0.098202
	103.300000	0.365792	-0.000448	0.098204
	103.400000	0.365208	-0.000329	0.098207
	103.500000	0.364633	-0.000303	0.098211
	103.600000	0.364727	-0.000605	0.098206
	103.700000	0.364117	-0.000398	0.098211
	103.800000	0.361424	-0.000378	0.098213
	103.900000	0.363360	-0.000369	0.098205
	104.000000	0.362921	-0.000434	0.098206
	104.100000	0.364631	-0.000513	0.098208
	104.200000	0.363215	-0.000336	0.098211
	104.300000	0.364163	-0.000434	0.098204
	104.400000	0.361534	-0.000395	0.098207
	104.500000	0.364098	-0.000382	0.098214
	104.600000	0.362841	-0.000283	0.098208
	104.700000	0.362816	-0.000401	0.098208
	104.800000	0.365490	-0.000346	0.098211
	104.900000	0.363865	-0.000178	0.098202
	105.000000	0.363621	-0.000392	0.098205
	105.100000	0.365373	-0.000418	0.098203
	105.200000	0.362944	-0.000293	0.098215
	105.300000	0.363751	-0.000388	0.098208
	105.400000	0.365513	-0.000408	0.098209
	105.500000	0.363942	-0.000411	0.098204
	105.600000	0.364888	-0.000339	0.098209
	105.700000	0.364499	-0.000355	0.098208
	105.800000	0.366951	-0.000342	0.098201
	105.900000	0.364081	-0.000290	0.098203
	106.000000	0.365729	-0.000326	0.098203
	106.100000	0.363678	-0.000385	0.098213
	106.200000	0.365100	-0.000434	0.098210
	106.300000	0.366066	-0.000336	0.098203
	106.400000	0.364183	-0.000286	0.098207
	106.500000	0.367097	-0.000329	0.098209
	106.600000	0.367047	-0.000510	0.098208
	106.700000	0.365628	-0.000375	0.098213
	106.800000	0.365551	-0.000336	0.098208
	106.900000	0.366208	-0.000237	0.098206
	107.000000	0.367020	-0.000369	0.098208
	107.100000	0.367610	-0.000425	0.098207
	107.200000	0.365582	-0.000408	0.098210
	107.300000	0.367335	-0.000369	0.098210
	107.400000	0.367345	-0.000411	0.098205
	107.500000	0.366282	-0.000303	0.098205
	107.600000	0.365674	-0.000451	0.098204
	107.700000	0.366344	-0.000474	0.098213
	107.800000	0.365283	-0.000434	0.098208
	107.900000	0.366734	-0.000510	0.098200
	108.000000	0.366134	-0.000382	0.098215
	108.100000	0.368262	-0.000444	0.098208
	108.200000	0.367171	-0.000365	0.098210
	108.300000	0.364815	-0.000313	0.098212
	108.400000	0.365921	-0.000428	0.098205
	108.500000	0.364904	-0.000398	0.098208
	108.600000	0.364734	-0.000454	0.098204
	108.700000	0.364575	-0.000346	0.098207
	108.800000	0.363085	-0.000319	0.098211
	108.900000	0.366823	-0.000273	0.098205
	109.000000	0.365164	-0.000234	0.098201
	109.100000	0.368908	-0.000438	0.098201
	109.200000	0.366373	-0.000286	0.098202
	109.300000	0.366930	-0.000270	0.098209
	109.400000	0.367118	-0.000398	0.098206
	109.500000	0.366296	-0.000431	0.098199
	109.600000	0.368255	-0.000434	0.098202
	109.700000	0.366057	-0.000418	0.098205
	109.800000	0.366766	-0.000375	0.098210
	109.900000	0.365439	-0.000454	0.098208
	110.000000	0.367639	-0.000411	0.098201
	110.100000	0.366611	-0.000352	0.098199
	110.200000	0.366447	-0.000441	0.098208
	110.300000	0.367354	-0.000359	0.098199
	110.400000	0.366493	-0.000257	0.098204
	110.500000	0.366795	-0.000257	0.098213
	110.600000	0.367728	-0.000464	0.098206
	110.700000	0.366612	-0.000349	0.098211
	110.800000	0.366577	-0.000349	0.098205
	110.900000	0.366183	-0.000474	0.098203
	111.000000	0.367127	-0.000441	0.098199
	111.100000	0.366191	-3.969938E-5	0.098202
	111.200000	0.366648	-0.000408	0.098203
	111.300000	0.367161	-0.000632	0.098205
	111.400000	0.366103	-0.000346	0.098202
	111.500000	0.366468	-0.000385	0.098204
	111.600000	0.367084	-0.000444	0.098208
	111.700000	0.365838	-0.000313	0.098202
	111.800000	0.366256	-0.000250	0.098202
	111.900000	0.366976	-0.000421	0.098204
	112.000000	0.367357	-0.000526	0.098203
	112.100000	0.365793	-0.000589	0.098211
	112.200000	0.366170	-0.000441	0.098206
	112.300000	0.366091	-0.000398	0.098209
	112.400000	0.366926	-0.000487	0.098204
	112.500000	0.368021	-0.000395	0.098205
	112.600000	0.365708	-0.000497	0.098211
	112.700000	0.367367	-0.000480	0.098212
	112.800000	0.367686	-0.000490	0.098204
	112.900000	0.366546	-0.000454	0.098212
	113.000000	0.368088	-0.000526	0.098208
	113.100000	0.367076	-6.601179E-5	0.098209
	113.200000	0.367904	-0.000283	0.098204
	113.300000	0.365646	-0.000553	0.098209
	113.400000	0.366574	-0.000421	0.098209
	113.500000	0.368540	-0.000461	0.098211
	113.600000	0.367250	-4.627748E-5	0.098210
	113.700000	0.366811	-0.000346	0.098212
	113.800000	0.368519	-0.000418	0.098214
	113.900000	0.365974	-0.000540	0.098206
	114.000000	0.366948	-0.000576	0.098199
	114.100000	0.368828	-0.000573	0.098203
	114.200000	0.367742	-0.000490	0.098207
	114.300000	0.366090	-0.000227	0.098207
	114.400000	0.366740	-5.943369E-5	0.098205
	114.500000	0.367872	-0.000569	0.098209
	114.600000	0.367782	-0.000444	0.098205
	114.700000	0.368928	-0.000517	0.098200
	114.800000	0.369432	-0.000434	0.098205
	114.900000	0.367413	-0.000408	0.098200
	115.000000	0.369470	-0.000494	0.098202
	115.100000	0.367761	-0.000441	0.098205
	115.200000	0.368874	-0.000536	0.098211
	115.300000	0.368941	-0.000451	0.098209
	115.400000	0.370330	-0.000471	0.098205
	115.500000	0.368675	-0.000398	0.098203
	115.600000	0.369864	-0.000385	0.098204
	115.700000	0.370147	-0.000526	0.098209
	115.800000	0.371412	-0.000415	0.098205
	115.900000	0.370514	-0.000523	0.098207
	116.000000	0.369646	-0.000392	0.098210
	116.100000	0.370284	-0.000369	0.098207
	116.200000	0.370213	-0.000444	0.098202
	116.300000	0.370557	-0.000421	0.098207
	116.400000	0.370037	-0.000434	0.098198
	116.500000	0.369501	-0.000329	0.098206
	116.600000	0.370986	-0.000464	0.098202
	116.700000	0.369182	-0.000500	0.098201
	116.800000	0.367462	-0.000418	0.098204
	116.900000	0.367853	-0.000444	0.098200
	117.000000	0.368436	-0.000355	0.098207
	117.100000	0.370187	-0.000526	0.098208
	117.200000	0.370532	-0.000510	0.098205
	117.300000	0.370058	-0.000411	0.098205
	117.400000	0.369919	-0.000401	0.098213
	117.500000	0.368021	-0.000513	0.098203
	117.600000	0.370255	-0.000438	0.098209
	117.700000	0.369083	-0.000401	0.098207
	117.800000	0.369688	-0.000431	0.098211
	117.900000	0.368665	-0.000332	0.098209
	118.000000	0.369618	-0.000398	0.098204
	118.100000	0.369248	-0.000395	0.098202
	118.200000	0.369464	-0.000648	0.098205
	118.300000	0.369283	-0.000517	0.098210
	118.400000	0.370455	-0.000434	0.098202
	118.500000	0.370747	-0.000425	0.098207
	118.600000	0.370707	-0.000421	0.098207
	118.700000	0.370309	-0.000474	0.098200
	118.800000	0.371796	-0.000401	0.098204
	118.900000	0.371710	-0.000586	0.098206
	119.000000	0.373224	-0.000313	0.098206
	119.100000	0.370309	-0.000132	0.098205
	119.200000	0.371472	-0.000122	0.098204
	119.300000	0.371669	-0.000559	0.098209
	119.400000	0.371301	-0.000474	0.098213
	119.500000	0.370349	-0.000553	0.098204
	119.600000	0.371868	-0.000401	0.098207
	119.700000	0.370742	-0.000530	0.098209
	119.800000	0.370822	-0.000441	0.098208
	119.900000	0.370266	-0.000329	0.098206

