LabVIEW Measurement	
Writer_Version	2
Reader_Version	2
Separator	Tab
Decimal_Separator	.
Multi_Headings	Yes
X_Columns	No
Time_Pref	Relative
Operator	stud40
Description	Saved t, TC, RISC, PT100
Date	2023/03/21
Time	19:03:39.7111430168151855469
***End_of_Header***	
	
Channels	4				
Samples	1200	1200	1200	1200	
Date	2023/03/21	2023/03/21	2023/03/21	2023/03/21	
Time	19:03:39.7111430168151855469	19:03:39.7111430168151855469	19:03:39.7111430168151855469	19:03:39.7111430168151855469	
X_Dimension	Time	Time	Time	Time	
X0	0.0000000000000000E+0	0.0000000000000000E+0	0.0000000000000000E+0	0.0000000000000000E+0	
Delta_X	1.000000	1.000000	1.000000	1.000000	
***End_of_Header***					
X_Value	Untitled	Untitled 1	Untitled 2	Untitled 3	Comment
	0.000000	0.384795	-0.000286	0.098073
	0.100000	0.384500	-0.000313	0.098090
	0.200000	0.382694	-0.000145	0.098076
	0.300000	0.384461	-0.000257	0.098081
	0.400000	0.383645	-0.000152	0.098076
	0.500000	0.384065	-0.000503	0.098078
	0.600000	0.382170	-0.000530	0.098081
	0.700000	0.384107	-0.000494	0.098080
	0.800000	0.382624	-0.000346	0.098077
	0.900000	0.384850	-0.000569	0.098081
	1.000000	0.383486	9.503595	0.098075
	1.100000	0.383536	9.934098	0.098080
	1.200000	0.383202	9.933450	0.098078
	1.300000	0.383924	9.933631	0.098073
	1.400000	0.385281	9.933749	0.098081
	1.500000	0.383533	3.396962	0.098074
	1.600000	0.384530	-0.000592	0.098075
	1.700000	0.384242	-0.000625	0.098082
	1.800000	0.384768	-0.000319	0.098075
	1.900000	0.386900	-0.000273	0.098072
	2.000000	0.384393	-0.000434	0.098079
	2.100000	0.384519	-0.000349	0.098079
	2.200000	0.385932	-0.000438	0.098079
	2.300000	0.384957	-0.000375	0.098076
	2.400000	0.385435	-0.000408	0.098074
	2.500000	0.386174	-0.000464	0.098084
	2.600000	0.384806	-0.000277	0.098075
	2.700000	0.384185	-0.000303	0.098077
	2.800000	0.383414	-0.000355	0.098077
	2.900000	0.384342	-0.000352	0.098083
	3.000000	0.385506	-0.000319	0.098070
	3.100000	0.382429	-0.000286	0.098074
	3.200000	0.382358	-0.000323	0.098077
	3.300000	0.384243	-0.000395	0.098080
	3.400000	0.382737	-0.000392	0.098078
	3.500000	0.383258	-0.000467	0.098082
	3.600000	0.383198	-0.000332	0.098074
	3.700000	0.383302	-0.000415	0.098076
	3.800000	0.381545	-0.000323	0.098083
	3.900000	0.384512	-0.000461	0.098079
	4.000000	0.382874	-0.000405	0.098085
	4.100000	0.382735	-0.000273	0.098075
	4.200000	0.382491	-0.000421	0.098079
	4.300000	0.384327	-0.000428	0.098074
	4.400000	0.381115	-0.000467	0.098078
	4.500000	0.381862	-0.000467	0.098081
	4.600000	0.379747	-0.000415	0.098082
	4.700000	0.382919	-0.000411	0.098082
	4.800000	0.381033	-0.000342	0.098077
	4.900000	0.380330	-0.000244	0.098075
	5.000000	0.382401	-0.000454	0.098068
	5.100000	0.383127	-0.000306	0.098074
	5.200000	0.380462	-0.000234	0.098077
	5.300000	0.381248	-0.000349	0.098076
	5.400000	0.380978	-0.000365	0.098082
	5.500000	0.380829	-0.000277	0.098078
	5.600000	0.379477	-0.000405	0.098088
	5.700000	0.380071	-0.000342	0.098079
	5.800000	0.379934	-0.000316	0.098078
	5.900000	0.379486	-0.000359	0.098081
	6.000000	0.378389	-0.000418	0.098078
	6.100000	0.377418	-0.000372	0.098076
	6.200000	0.379644	-0.000559	0.098076
	6.300000	0.377490	-0.000464	0.098073
	6.400000	0.377040	-0.000408	0.098072
	6.500000	0.375404	-0.000369	0.098080
	6.600000	0.374587	-0.000369	0.098078
	6.700000	0.372397	-0.000388	0.098080
	6.800000	0.373019	-0.000372	0.098070
	6.900000	0.373096	-0.000362	0.098077
	7.000000	0.373629	-0.000648	0.098073
	7.100000	0.371463	3.058297E-6	0.098076
	7.200000	0.371613	-0.000365	0.098080
	7.300000	0.371614	-0.000517	0.098076
	7.400000	0.370746	-0.000454	0.098073
	7.500000	0.369849	-0.000434	0.098078
	7.600000	0.370552	-0.000526	0.098074
	7.700000	0.370227	-0.000471	0.098076
	7.800000	0.368041	-0.000497	0.098081
	7.900000	0.368923	-0.000448	0.098080
	8.000000	0.367760	-0.000431	0.098078
	8.100000	0.367559	-0.000283	0.098083
	8.200000	0.365837	-0.000359	0.098078
	8.300000	0.365579	-0.000260	0.098083
	8.400000	0.366203	-0.000336	0.098083
	8.500000	0.362843	-0.000569	0.098077
	8.600000	0.362679	-0.000253	0.098083
	8.700000	0.362310	-0.000582	0.098080
	8.800000	0.361085	-0.000582	0.098083
	8.900000	0.360321	-0.000599	0.098075
	9.000000	0.361060	-0.000319	0.098073
	9.100000	0.359438	-0.000411	0.098084
	9.200000	0.361160	-0.000362	0.098075
	9.300000	0.359536	-0.000480	0.098083
	9.400000	0.358406	-0.000408	0.098073
	9.500000	0.358443	-0.000540	0.098077
	9.600000	0.358631	-0.000559	0.098084
	9.700000	0.357048	-0.000553	0.098083
	9.800000	0.357704	-0.000319	0.098076
	9.900000	0.355724	-0.000378	0.098076
	10.000000	0.355518	-0.000395	0.098079
	10.100000	0.355869	-0.000461	0.098077
	10.200000	0.354789	-0.000543	0.098075
	10.300000	0.353997	-0.000530	0.098078
	10.400000	0.352169	-0.000500	0.098077
	10.500000	0.353398	-0.000369	0.098080
	10.600000	0.353191	-0.000280	0.098084
	10.700000	0.352725	-0.000494	0.098079
	10.800000	0.352193	-0.000563	0.098074
	10.900000	0.350609	-0.000428	0.098077
	11.000000	0.350343	-0.000401	0.098078
	11.100000	0.350919	-0.000507	0.098074
	11.200000	0.350310	-0.000359	0.098081
	11.300000	0.350212	-0.000372	0.098080
	11.400000	0.350087	-0.000392	0.098083
	11.500000	0.349658	-0.000323	0.098074
	11.600000	0.348869	-0.000382	0.098076
	11.700000	0.348070	-0.000428	0.098082
	11.800000	0.346939	-0.000428	0.098082
	11.900000	0.347352	-0.000296	0.098079
	12.000000	0.347351	-0.000296	0.098081
	12.100000	0.345666	-0.000138	0.098086
	12.200000	0.343795	-0.000303	0.098071
	12.300000	0.344571	-0.000484	0.098078
	12.400000	0.344865	-0.000418	0.098076
	12.500000	0.344352	-0.000290	0.098078
	12.600000	0.345017	-0.000352	0.098077
	12.700000	0.342862	-0.000375	0.098076
	12.800000	0.344382	-0.000365	0.098078
	12.900000	0.343835	-0.000303	0.098074
	13.000000	0.343735	-0.000306	0.098078
	13.100000	0.344637	-0.000194	0.098075
	13.200000	0.342064	-0.000227	0.098078
	13.300000	0.342822	-0.000290	0.098083
	13.400000	0.340365	-0.000247	0.098083
	13.500000	0.342739	-0.000244	0.098077
	13.600000	0.342937	-0.000277	0.098073
	13.700000	0.341354	-0.000411	0.098080
	13.800000	0.340531	-0.000263	0.098072
	13.900000	0.338848	-0.000336	0.098079
	14.000000	0.339430	-0.000313	0.098077
	14.100000	0.337814	-0.000260	0.098080
	14.200000	0.339285	-0.000362	0.098072
	14.300000	0.339516	-0.000609	0.098083
	14.400000	0.338938	-0.000536	0.098077
	14.500000	0.339993	-0.000319	0.098083
	14.600000	0.339315	-0.000385	0.098085
	14.700000	0.339489	-0.000457	0.098080
	14.800000	0.338224	-0.000395	0.098080
	14.900000	0.338214	-0.000526	0.098083
	15.000000	0.339108	-0.000346	0.098081
	15.100000	0.336107	-0.000428	0.098078
	15.200000	0.336384	-0.000336	0.098084
	15.300000	0.335890	-0.000211	0.098080
	15.400000	0.336305	-0.000188	0.098081
	15.500000	0.336670	-0.000365	0.098075
	15.600000	0.336356	-0.000296	0.098088
	15.700000	0.338290	-0.000230	0.098081
	15.800000	0.335863	-0.000286	0.098073
	15.900000	0.336197	-0.000224	0.098082
	16.000000	0.336183	-0.000280	0.098074
	16.100000	0.335356	-0.000352	0.098085
	16.200000	0.335609	-0.000362	0.098081
	16.300000	0.334556	-0.000329	0.098077
	16.400000	0.335682	-0.000336	0.098079
	16.500000	0.336068	-0.000326	0.098084
	16.600000	0.334463	-0.000438	0.098085
	16.700000	0.333215	-0.000355	0.098086
	16.800000	0.334894	-0.000323	0.098084
	16.900000	0.334878	-0.000378	0.098075
	17.000000	0.333093	-0.000300	0.098086
	17.100000	0.335803	-0.000329	0.098079
	17.200000	0.333992	-0.000332	0.098079
	17.300000	0.334161	-0.000342	0.098082
	17.400000	0.333110	-0.000329	0.098079
	17.500000	0.332969	-0.000313	0.098077
	17.600000	0.333370	-0.000306	0.098080
	17.700000	0.329680	-0.000349	0.098078
	17.800000	0.332687	-0.000500	0.098079
	17.900000	0.334110	-0.000497	0.098082
	18.000000	0.332805	-0.000415	0.098085
	18.100000	0.330160	-0.000372	0.098070
	18.200000	0.332059	-0.000296	0.098076
	18.300000	0.333027	-0.000434	0.098084
	18.400000	0.331100	-0.000362	0.098084
	18.500000	0.333142	-0.000300	0.098077
	18.600000	0.332324	-0.000494	0.098082
	18.700000	0.331407	-0.000355	0.098080
	18.800000	0.330941	-0.000431	0.098081
	18.900000	0.332693	-0.000313	0.098075
	19.000000	0.331593	-0.000161	0.098080
	19.100000	0.331587	-0.000191	0.098077
	19.200000	0.331155	-0.000191	0.098081
	19.300000	0.333912	-0.000332	0.098079
	19.400000	0.332061	-0.000342	0.098080
	19.500000	0.332520	-0.000474	0.098083
	19.600000	0.331210	-0.000434	0.098075
	19.700000	0.331641	-0.000365	0.098086
	19.800000	0.332564	-0.000372	0.098079
	19.900000	0.332500	-0.000188	0.098082
	20.000000	0.332083	-0.000221	0.098078
	20.100000	0.331017	-0.000257	0.098084
	20.200000	0.331877	-0.000398	0.098074
	20.300000	0.333561	-0.000171	0.098078
	20.400000	0.332823	-0.000451	0.098077
	20.500000	0.331212	-0.000300	0.098081
	20.600000	0.332741	-0.000253	0.098083
	20.700000	0.331040	-0.000247	0.098076
	20.800000	0.332716	-0.000115	0.098075
	20.900000	0.331807	-0.000267	0.098078
	21.000000	0.333229	-0.000306	0.098073
	21.100000	0.331365	-0.000240	0.098079
	21.200000	0.333618	-0.000388	0.098082
	21.300000	0.331950	-0.000313	0.098085
	21.400000	0.333964	-0.000313	0.098081
	21.500000	0.331053	-0.000286	0.098084
	21.600000	0.332063	-0.000273	0.098083
	21.700000	0.331104	-0.000359	0.098081
	21.800000	0.333200	-0.000415	0.098081
	21.900000	0.332148	-0.000431	0.098083
	22.000000	0.333288	-0.000461	0.098081
	22.100000	0.332543	-0.000464	0.098075
	22.200000	0.333040	-0.000415	0.098079
	22.300000	0.332262	-0.000257	0.098065
	22.400000	0.334369	-0.000323	0.098078
	22.500000	0.332511	-0.000309	0.098083
	22.600000	0.333436	-0.000217	0.098079
	22.700000	0.333608	-0.000319	0.098078
	22.800000	0.334073	-0.000421	0.098084
	22.900000	0.331546	-0.000362	0.098083
	23.000000	0.331311	-0.000326	0.098081
	23.100000	0.332134	-0.000346	0.098079
	23.200000	0.334733	-0.000392	0.098083
	23.300000	0.332750	-0.000438	0.098077
	23.400000	0.334564	-0.000388	0.098084
	23.500000	0.333002	-0.000323	0.098077
	23.600000	0.333334	-0.000175	0.098087
	23.700000	0.334168	-0.000349	0.098078
	23.800000	0.333089	-0.000434	0.098077
	23.900000	0.332775	-0.000382	0.098083
	24.000000	0.334251	-0.000461	0.098078
	24.100000	0.333398	-0.000487	0.098079
	24.200000	0.335276	-0.000296	0.098081
	24.300000	0.334410	-0.000425	0.098089
	24.400000	0.334582	-0.000405	0.098083
	24.500000	0.333473	-0.000375	0.098087
	24.600000	0.331743	-0.000461	0.098073
	24.700000	0.333290	-0.000444	0.098079
	24.800000	0.333185	-0.000346	0.098082
	24.900000	0.335159	-0.000323	0.098085
	25.000000	0.335129	-0.000415	0.098080
	25.100000	0.334053	-0.000388	0.098080
	25.200000	0.331488	-0.000375	0.098081
	25.300000	0.335120	-0.000332	0.098083
	25.400000	0.334033	-0.000444	0.098090
	25.500000	0.333617	-0.000411	0.098082
	25.600000	0.334343	-0.000332	0.098076
	25.700000	0.334200	-0.000362	0.098084
	25.800000	0.335114	-0.000323	0.098083
	25.900000	0.337627	-0.000438	0.098084
	26.000000	0.335791	-0.000342	0.098086
	26.100000	0.334008	-0.000194	0.098079
	26.200000	0.333235	-0.000194	0.098080
	26.300000	0.332090	-0.000211	0.098084
	26.400000	0.335334	-0.000125	0.098080
	26.500000	0.334784	-0.000286	0.098083
	26.600000	0.334789	-0.000122	0.098082
	26.700000	0.336662	-0.000240	0.098083
	26.800000	0.336106	-0.000260	0.098084
	26.900000	0.333938	-0.000290	0.098085
	27.000000	0.333721	-0.000198	0.098090
	27.100000	0.336431	-0.000332	0.098079
	27.200000	0.336864	-0.000342	0.098083
	27.300000	0.338021	-0.000263	0.098090
	27.400000	0.335214	-0.000214	0.098078
	27.500000	0.335333	-0.000286	0.098082
	27.600000	0.336560	-0.000434	0.098076
	27.700000	0.336349	-0.000408	0.098083
	27.800000	0.336794	-0.000461	0.098085
	27.900000	0.336563	-0.000372	0.098077
	28.000000	0.334742	-0.000300	0.098088
	28.100000	0.336797	-0.000352	0.098080
	28.200000	0.334771	-0.000375	0.098075
	28.300000	0.336219	-0.000352	0.098081
	28.400000	0.336815	-0.000382	0.098077
	28.500000	0.334381	-0.000438	0.098081
	28.600000	0.335593	-0.000316	0.098081
	28.700000	0.337974	-0.000369	0.098086
	28.800000	0.335652	-0.000319	0.098081
	28.900000	0.336394	-0.000224	0.098085
	29.000000	0.337845	-0.000270	0.098088
	29.100000	0.338369	-0.000378	0.098075
	29.200000	0.337370	-0.000234	0.098088
	29.300000	0.335454	-0.000227	0.098082
	29.400000	0.336285	-0.000303	0.098079
	29.500000	0.339046	-0.000303	0.098083
	29.600000	0.337388	-0.000227	0.098074
	29.700000	0.337603	-0.000359	0.098087
	29.800000	0.337542	-0.000418	0.098087
	29.900000	0.340503	-0.000244	0.098086
	30.000000	0.338345	-0.000375	0.098076
	30.100000	0.338256	-0.000342	0.098088
	30.200000	0.338701	-0.000375	0.098083
	30.300000	0.337132	-0.000461	0.098082
	30.400000	0.339771	-0.000316	0.098082
	30.500000	0.338243	-0.000434	0.098086
	30.600000	0.339400	-0.000382	0.098079
	30.700000	0.338501	-0.000438	0.098077
	30.800000	0.339778	-0.000405	0.098084
	30.900000	0.340721	-0.000339	0.098083
	31.000000	0.339751	-0.000428	0.098086
	31.100000	0.340634	-0.000398	0.098074
	31.200000	0.338040	-0.000372	0.098083
	31.300000	0.340950	-0.000444	0.098082
	31.400000	0.341317	-0.000342	0.098082
	31.500000	0.340197	-0.000260	0.098087
	31.600000	0.342452	-0.000451	0.098087
	31.700000	0.341750	-0.000346	0.098084
	31.800000	0.341928	-0.000474	0.098087
	31.900000	0.340938	-0.000392	0.098080
	32.000000	0.341144	-0.000408	0.098086
	32.100000	0.342292	-0.000448	0.098084
	32.200000	0.341043	-0.000408	0.098086
	32.300000	0.340227	-0.000290	0.098081
	32.400000	0.341532	-0.000474	0.098086
	32.500000	0.338302	-0.000415	0.098088
	32.600000	0.341791	-0.000405	0.098076
	32.700000	0.339304	-0.000408	0.098081
	32.800000	0.339692	-0.000438	0.098089
	32.900000	0.340543	-0.000392	0.098086
	33.000000	0.340871	-0.000349	0.098077
	33.100000	0.341040	-0.000431	0.098086
	33.200000	0.340927	-0.000392	0.098085
	33.300000	0.340703	-0.000520	0.098079
	33.400000	0.341680	-0.000678	0.098076
	33.500000	0.340857	-0.000638	0.098084
	33.600000	0.342616	-0.000543	0.098083
	33.700000	0.343360	-0.000230	0.098085
	33.800000	0.343347	-0.000148	0.098085
	33.900000	0.344159	-0.000480	0.098084
	34.000000	0.342190	-0.000563	0.098085
	34.100000	0.342994	-7.258990E-5	0.098082
	34.200000	0.343496	-0.000382	0.098086
	34.300000	0.343865	-0.000484	0.098086
	34.400000	0.344732	-0.000497	0.098073
	34.500000	0.343795	-0.000503	0.098078
	34.600000	0.343078	-0.000457	0.098076
	34.700000	0.344746	-0.000569	0.098081
	34.800000	0.344366	-0.000431	0.098090
	34.900000	0.343337	-0.000349	0.098081
	35.000000	0.345605	-0.000221	0.098083
	35.100000	0.344225	-0.000326	0.098086
	35.200000	0.344731	-0.000250	0.098088
	35.300000	0.344701	-0.000171	0.098089
	35.400000	0.342948	-0.000355	0.098085
	35.500000	0.344676	-0.000303	0.098088
	35.600000	0.345527	-0.000181	0.098086
	35.700000	0.342752	-0.000309	0.098087
	35.800000	0.344184	-0.000332	0.098085
	35.900000	0.344814	-0.000355	0.098082
	36.000000	0.345528	-0.000273	0.098075
	36.100000	0.345135	-0.000283	0.098088
	36.200000	0.343220	-0.000300	0.098084
	36.300000	0.347213	-0.000398	0.098087
	36.400000	0.343773	-0.000253	0.098083
	36.500000	0.345588	-0.000365	0.098079
	36.600000	0.346421	-0.000313	0.098082
	36.700000	0.344572	-0.000244	0.098085
	36.800000	0.345606	-0.000388	0.098089
	36.900000	0.343785	-0.000207	0.098083
	37.000000	0.342420	-0.000250	0.098084
	37.100000	0.343996	-0.000293	0.098078
	37.200000	0.344744	-0.000286	0.098080
	37.300000	0.342034	-0.000346	0.098084
	37.400000	0.344280	-0.000421	0.098082
	37.500000	0.343501	-0.000352	0.098080
	37.600000	0.344525	-0.000323	0.098086
	37.700000	0.342858	-0.000326	0.098090
	37.800000	0.345408	-0.000385	0.098081
	37.900000	0.346142	-0.000280	0.098079
	38.000000	0.344695	-0.000300	0.098091
	38.100000	0.346020	-0.000362	0.098079
	38.200000	0.344067	-0.000329	0.098077
	38.300000	0.344354	-0.000365	0.098085
	38.400000	0.343058	-0.000253	0.098084
	38.500000	0.345486	-0.000270	0.098082
	38.600000	0.345605	-0.000392	0.098082
	38.700000	0.343717	-0.000323	0.098080
	38.800000	0.344651	-0.000365	0.098093
	38.900000	0.345673	-0.000230	0.098084
	39.000000	0.346658	-0.000253	0.098087
	39.100000	0.345812	-0.000352	0.098077
	39.200000	0.347092	-0.000398	0.098086
	39.300000	0.345576	-0.000438	0.098088
	39.400000	0.344653	-0.000392	0.098089
	39.500000	0.346947	-0.000359	0.098088
	39.600000	0.347592	-0.000323	0.098087
	39.700000	0.346917	-0.000240	0.098095
	39.800000	0.348496	-0.000270	0.098085
	39.900000	0.346690	-0.000378	0.098095
	40.000000	0.348016	-0.000283	0.098090
	40.100000	0.347303	-0.000237	0.098098
	40.200000	0.344346	-0.000214	0.098087
	40.300000	0.348282	-0.000184	0.098090
	40.400000	0.348541	-0.000142	0.098095
	40.500000	0.349054	-0.000201	0.098094
	40.600000	0.348529	-0.000293	0.098098
	40.700000	0.346142	-0.000339	0.098086
	40.800000	0.350174	-0.000388	0.098087
	40.900000	0.348456	-0.000250	0.098083
	41.000000	0.347855	-0.000240	0.098097
	41.100000	0.348798	-0.000329	0.098088
	41.200000	0.348594	-0.000408	0.098101
	41.300000	0.348016	-0.000214	0.098092
	41.400000	0.348419	-0.000263	0.098088
	41.500000	0.345811	-0.000415	0.098090
	41.600000	0.347463	-0.000375	0.098088
	41.700000	0.347277	-0.000224	0.098090
	41.800000	0.347379	-0.000204	0.098089
	41.900000	0.347865	-0.000277	0.098092
	42.000000	0.348395	-0.000250	0.098092
	42.100000	0.350251	-0.000362	0.098090
	42.200000	0.349752	-0.000428	0.098098
	42.300000	0.347311	-0.000497	0.098103
	42.400000	0.348269	-0.000296	0.098093
	42.500000	0.348956	-0.000395	0.098089
	42.600000	0.348361	-0.000434	0.098086
	42.700000	0.349151	-0.000237	0.098085
	42.800000	0.348380	-0.000415	0.098092
	42.900000	0.348218	-0.000191	0.098089
	43.000000	0.348573	-0.000230	0.098092
	43.100000	0.347394	-0.000474	0.098090
	43.200000	0.351099	-0.000434	0.098097
	43.300000	0.348776	-0.000365	0.098092
	43.400000	0.350203	-0.000546	0.098091
	43.500000	0.350829	-0.000579	0.098095
	43.600000	0.350304	-0.000612	0.098092
	43.700000	0.350978	-0.000428	0.098092
	43.800000	0.348175	-0.000401	0.098085
	43.900000	0.350124	-0.000378	0.098093
	44.000000	0.349600	-0.000418	0.098089
	44.100000	0.346589	-0.000280	0.098087
	44.200000	0.350738	-0.000237	0.098095
	44.300000	0.348315	-0.000477	0.098091
	44.400000	0.351312	-0.000339	0.098092
	44.500000	0.349926	-0.000207	0.098093
	44.600000	0.350513	-0.000339	0.098092
	44.700000	0.352123	-0.000342	0.098095
	44.800000	0.350862	-0.000388	0.098090
	44.900000	0.348296	-0.000332	0.098096
	45.000000	0.349236	-0.000405	0.098090
	45.100000	0.346944	-0.000484	0.098089
	45.200000	0.345215	-0.000451	0.098093
	45.300000	0.349025	-0.000339	0.098092
	45.400000	0.349684	-0.000319	0.098089
	45.500000	0.352119	-0.000323	0.098090
	45.600000	0.347557	-0.000369	0.098094
	45.700000	0.349424	-0.000270	0.098084
	45.800000	0.351290	-0.000332	0.098091
	45.900000	0.351990	-0.000398	0.098089
	46.000000	0.349700	-0.000500	0.098091
	46.100000	0.350250	-0.000392	0.098094
	46.200000	0.350756	-0.000392	0.098085
	46.300000	0.349961	-0.000290	0.098088
	46.400000	0.351617	-0.000503	0.098087
	46.500000	0.352236	-0.000378	0.098087
	46.600000	0.351385	-0.000457	0.098090
	46.700000	0.352470	-0.000355	0.098091
	46.800000	0.350275	-0.000503	0.098093
	46.900000	0.350690	-0.000438	0.098093
	47.000000	0.352673	-0.000372	0.098093
	47.100000	0.352832	-0.000421	0.098095
	47.200000	0.353478	-0.000326	0.098094
	47.300000	0.350687	-0.000171	0.098084
	47.400000	0.353172	-0.000355	0.098087
	47.500000	0.352229	-0.000425	0.098092
	47.600000	0.352570	-0.000438	0.098087
	47.700000	0.352715	-0.000494	0.098089
	47.800000	0.351789	-0.000415	0.098091
	47.900000	0.352893	-0.000467	0.098094
	48.000000	0.355765	-0.000497	0.098090
	48.100000	0.353802	-0.000434	0.098089
	48.200000	0.354802	-0.000405	0.098090
	48.300000	0.354627	-0.000444	0.098090
	48.400000	0.354255	-0.000369	0.098092
	48.500000	0.354389	-0.000415	0.098092
	48.600000	0.354899	-0.000540	0.098092
	48.700000	0.354909	-0.000596	0.098088
	48.800000	0.354980	-0.000526	0.098090
	48.900000	0.353797	-0.000457	0.098083
	49.000000	0.353086	-0.000484	0.098090
	49.100000	0.353382	-0.000418	0.098088
	49.200000	0.355264	-0.000431	0.098091
	49.300000	0.356065	-0.000425	0.098084
	49.400000	0.353074	-0.000253	0.098097
	49.500000	0.352655	-0.000378	0.098091
	49.600000	0.352484	-0.000346	0.098096
	49.700000	0.352452	-0.000336	0.098092
	49.800000	0.352587	-0.000257	0.098092
	49.900000	0.353988	-0.000484	0.098097
	50.000000	0.354370	-0.000277	0.098085
	50.100000	0.354621	-0.000408	0.098093
	50.200000	0.355223	-0.000352	0.098091
	50.300000	0.355641	-0.000477	0.098088
	50.400000	0.354648	-0.000323	0.098087
	50.500000	0.356237	-0.000408	0.098092
	50.600000	0.354972	-0.000401	0.098088
	50.700000	0.354794	-0.000257	0.098089
	50.800000	0.355025	-0.000217	0.098083
	50.900000	0.353370	-0.000234	0.098092
	51.000000	0.354785	-0.000230	0.098088
	51.100000	0.355814	-0.000454	0.098088
	51.200000	0.355946	-0.000418	0.098090
	51.300000	0.354542	-0.000323	0.098092
	51.400000	0.355430	-0.000355	0.098097
	51.500000	0.354738	-0.000395	0.098096
	51.600000	0.353485	-0.000408	0.098091
	51.700000	0.355288	-0.000336	0.098092
	51.800000	0.355291	-0.000283	0.098086
	51.900000	0.355112	-0.000355	0.098095
	52.000000	0.354634	-0.000474	0.098088
	52.100000	0.359343	-0.000378	0.098090
	52.200000	0.355590	-0.000474	0.098100
	52.300000	0.356736	-0.000533	0.098092
	52.400000	0.357213	-0.000438	0.098088
	52.500000	0.356195	-0.000349	0.098092
	52.600000	0.355572	-0.000464	0.098090
	52.700000	0.356214	-0.000434	0.098096
	52.800000	0.356753	-0.000474	0.098094
	52.900000	0.357888	-0.000332	0.098093
	53.000000	0.356357	-0.000283	0.098094
	53.100000	0.357718	-0.000520	0.098101
	53.200000	0.356891	-0.000454	0.098088
	53.300000	0.355740	-0.000484	0.098084
	53.400000	0.358591	-0.000375	0.098096
	53.500000	0.358219	-0.000329	0.098091
	53.600000	0.356350	-0.000487	0.098089
	53.700000	0.355894	-0.000319	0.098097
	53.800000	0.356463	-0.000372	0.098091
	53.900000	0.357677	-0.000451	0.098090
	54.000000	0.356772	-0.000415	0.098092
	54.100000	0.356684	-0.000309	0.098090
	54.200000	0.357961	-0.000332	0.098095
	54.300000	0.358629	-0.000457	0.098095
	54.400000	0.358468	-0.000507	0.098089
	54.500000	0.356397	-0.000451	0.098094
	54.600000	0.355251	-0.000418	0.098096
	54.700000	0.357717	-0.000326	0.098092
	54.800000	0.356428	-0.000309	0.098093
	54.900000	0.357806	-0.000382	0.098094
	55.000000	0.358855	-0.000273	0.098093
	55.100000	0.356504	-0.000244	0.098086
	55.200000	0.359555	-0.000283	0.098087
	55.300000	0.359348	-0.000280	0.098093
	55.400000	0.358121	-0.000224	0.098094
	55.500000	0.357662	-0.000382	0.098092
	55.600000	0.359391	-0.000401	0.098093
	55.700000	0.359281	-0.000290	0.098097
	55.800000	0.357747	-0.000277	0.098099
	55.900000	0.359002	-0.000316	0.098085
	56.000000	0.359184	-0.000471	0.098089
	56.100000	0.360160	-0.000418	0.098095
	56.200000	0.359522	-0.000477	0.098088
	56.300000	0.360968	-0.000421	0.098090
	56.400000	0.358842	-0.000332	0.098090
	56.500000	0.360231	-0.000454	0.098098
	56.600000	0.360640	-0.000415	0.098094
	56.700000	0.357990	-0.000346	0.098092
	56.800000	0.361053	-0.000369	0.098094
	56.900000	0.359647	-0.000263	0.098089
	57.000000	0.359624	-0.000408	0.098097
	57.100000	0.358607	-0.000273	0.098083
	57.200000	0.359003	-0.000277	0.098092
	57.300000	0.359946	-0.000234	0.098087
	57.400000	0.360693	-0.000398	0.098086
	57.500000	0.359180	-0.000415	0.098099
	57.600000	0.359032	-0.000372	0.098094
	57.700000	0.363337	-0.000375	0.098093
	57.800000	0.361417	-0.000306	0.098098
	57.900000	0.359087	-0.000428	0.098100
	58.000000	0.360088	-0.000398	0.098081
	58.100000	0.360710	-0.000273	0.098088
	58.200000	0.357686	-0.000339	0.098100
	58.300000	0.360642	-0.000247	0.098090
	58.400000	0.358839	-0.000306	0.098088
	58.500000	0.360000	-0.000125	0.098088
	58.600000	0.360600	-0.000240	0.098093
	58.700000	0.360852	-0.000240	0.098091
	58.800000	0.359744	-0.000227	0.098086
	58.900000	0.360891	-0.000194	0.098097
	59.000000	0.360969	-0.000211	0.098086
	59.100000	0.362548	-0.000270	0.098090
	59.200000	0.359945	-0.000181	0.098091
	59.300000	0.359494	-0.000155	0.098096
	59.400000	0.361339	-0.000267	0.098094
	59.500000	0.361597	-0.000309	0.098090
	59.600000	0.360293	-0.000349	0.098092
	59.700000	0.361959	-0.000401	0.098092
	59.800000	0.361180	-0.000329	0.098099
	59.900000	0.360332	-0.000237	0.098096
	60.000000	0.360278	-0.000411	0.098090
	60.100000	0.362725	-0.000375	0.098092
	60.200000	0.362265	-0.000309	0.098085
	60.300000	0.360926	-0.000326	0.098090
	60.400000	0.362941	-0.000332	0.098095
	60.500000	0.362282	-0.000230	0.098094
	60.600000	0.363292	-0.000204	0.098092
	60.700000	0.361016	-0.000296	0.098092
	60.800000	0.362222	-0.000378	0.098086
	60.900000	0.359754	-0.000227	0.098093
	61.000000	0.362067	-0.000148	0.098089
	61.100000	0.362634	-0.000227	0.098082
	61.200000	0.360569	-0.000319	0.098093
	61.300000	0.361284	-0.000355	0.098090
	61.400000	0.362665	-0.000464	0.098092
	61.500000	0.361755	-0.000247	0.098086
	61.600000	0.361053	-0.000135	0.098095
	61.700000	0.360025	-9.561326E-5	0.098089
	61.800000	0.360471	-0.000115	0.098089
	61.900000	0.360635	-0.000247	0.098097
	62.000000	0.360996	-0.000181	0.098091
	62.100000	0.362597	-0.000230	0.098086
	62.200000	0.361094	-0.000267	0.098087
	62.300000	0.360950	-0.000234	0.098096
	62.400000	0.362744	-0.000224	0.098093
	62.500000	0.363748	-0.000257	0.098097
	62.600000	0.361166	-0.000306	0.098092
	62.700000	0.361645	-9.561326E-5	0.098095
	62.800000	0.361454	-0.000448	0.098096
	62.900000	0.361692	-0.000536	0.098093
	63.000000	0.361933	-0.000474	0.098086
	63.100000	0.363334	-0.000471	0.098093
	63.200000	0.362904	-0.000500	0.098091
	63.300000	0.364607	-0.000418	0.098084
	63.400000	0.362488	-0.000490	0.098092
	63.500000	0.363195	-0.000224	0.098087
	63.600000	0.361856	-0.000405	0.098095
	63.700000	0.362706	-0.000346	0.098090
	63.800000	0.363522	-0.000237	0.098102
	63.900000	0.361680	-0.000112	0.098098
	64.000000	0.362925	-0.000293	0.098089
	64.100000	0.361070	-0.000290	0.098093
	64.200000	0.364182	-0.000313	0.098090
	64.300000	0.363319	-0.000405	0.098083
	64.400000	0.364083	-0.000349	0.098094
	64.500000	0.366128	-0.000161	0.098093
	64.600000	0.362229	-0.000326	0.098097
	64.700000	0.362121	-0.000277	0.098086
	64.800000	0.363125	-0.000224	0.098095
	64.900000	0.364499	-0.000175	0.098090
	65.000000	0.363431	-0.000207	0.098096
	65.100000	0.363402	-0.000444	0.098098
	65.200000	0.366004	-0.000369	0.098081
	65.300000	0.363503	-0.000267	0.098098
	65.400000	0.363783	-0.000201	0.098087
	65.500000	0.363131	-0.000260	0.098090
	65.600000	0.365729	-7.916800E-5	0.098089
	65.700000	0.363885	-9.232421E-5	0.098095
	65.800000	0.363809	-0.000152	0.098096
	65.900000	0.363703	-0.000109	0.098094
	66.000000	0.363977	-0.000184	0.098091
	66.100000	0.364931	-0.000132	0.098100
	66.200000	0.365802	-0.000191	0.098094
	66.300000	0.366481	-0.000234	0.098093
	66.400000	0.363245	-0.000293	0.098091
	66.500000	0.366381	-8.903516E-5	0.098084
	66.600000	0.364143	-0.000283	0.098080
	66.700000	0.366216	-0.000431	0.098092
	66.800000	0.367058	-0.000257	0.098085
	66.900000	0.364801	-0.000267	0.098088
	67.000000	0.365710	-5.285559E-5	0.098091
	67.100000	0.364981	-0.000122	0.098086
	67.200000	0.362806	-0.000145	0.098099
	67.300000	0.364131	-0.000119	0.098094
	67.400000	0.365630	-0.000201	0.098087
	67.500000	0.365575	-0.000280	0.098091
	67.600000	0.364265	-8.574610E-5	0.098089
	67.700000	0.363788	-9.232421E-5	0.098092
	67.800000	0.365156	-7.258990E-5	0.098088
	67.900000	0.364322	-9.890231E-5	0.098093
	68.000000	0.363589	-0.000230	0.098088
	68.100000	0.366070	-0.000138	0.098089
	68.200000	0.365824	-3.641033E-5	0.098092
	68.300000	0.365629	-0.000408	0.098091
	68.400000	0.362657	-0.000346	0.098086
	68.500000	0.364586	-9.890231E-5	0.098093
	68.600000	0.365499	-0.000152	0.098088
	68.700000	0.367462	-0.000270	0.098094
	68.800000	0.366427	-0.000277	0.098091
	68.900000	0.366746	-0.000240	0.098094
	69.000000	0.367537	-0.000224	0.098092
	69.100000	0.365819	-0.000283	0.098093
	69.200000	0.366758	-0.000250	0.098089
	69.300000	0.366272	-0.000283	0.098088
	69.400000	0.367268	-0.000217	0.098094
	69.500000	0.364229	-0.000161	0.098091
	69.600000	0.365218	-5.943369E-5	0.098087
	69.700000	0.365635	-0.000300	0.098094
	69.800000	0.367462	-0.000221	0.098093
	69.900000	0.366610	-0.000214	0.098091
	70.000000	0.367074	-0.000204	0.098089
	70.100000	0.366780	-3.969938E-5	0.098087
	70.200000	0.366518	-0.000148	0.098097
	70.300000	0.367441	-0.000217	0.098100
	70.400000	0.367561	-0.000217	0.098093
	70.500000	0.367183	-0.000105	0.098091
	70.600000	0.367581	-0.000105	0.098101
	70.700000	0.367751	-0.000273	0.098091
	70.800000	0.367593	-0.000500	0.098098
	70.900000	0.366741	-0.000392	0.098091
	71.000000	0.367079	-0.000329	0.098093
	71.100000	0.367308	-0.000201	0.098085
	71.200000	0.368049	-0.000257	0.098087
	71.300000	0.367431	-0.000270	0.098092
	71.400000	0.367872	-0.000306	0.098096
	71.500000	0.365256	-0.000217	0.098093
	71.600000	0.367383	-0.000316	0.098084
	71.700000	0.366766	-0.000309	0.098086
	71.800000	0.367338	-0.000280	0.098088
	71.900000	0.365520	-0.000372	0.098094
	72.000000	0.365926	-0.000230	0.098088
	72.100000	0.365338	-0.000303	0.098092
	72.200000	0.368614	-0.000267	0.098092
	72.300000	0.365062	-0.000132	0.098095
	72.400000	0.366657	-0.000339	0.098087
	72.500000	0.367615	-0.000194	0.098094
	72.600000	0.366085	-0.000224	0.098090
	72.700000	0.366401	-0.000247	0.098095
	72.800000	0.366494	-0.000152	0.098091
	72.900000	0.367051	-0.000286	0.098087
	73.000000	0.367465	-0.000313	0.098093
	73.100000	0.367737	-0.000329	0.098083
	73.200000	0.368471	-0.000378	0.098098
	73.300000	0.369865	-0.000303	0.098088
	73.400000	0.369254	-0.000181	0.098094
	73.500000	0.368359	-0.000253	0.098094
	73.600000	0.367142	-0.000250	0.098093
	73.700000	0.368465	-0.000497	0.098089
	73.800000	0.366941	-0.000461	0.098083
	73.900000	0.367735	-0.000434	0.098082
	74.000000	0.367234	-0.000342	0.098080
	74.100000	0.366661	-0.000418	0.098081
	74.200000	0.368522	-0.000425	0.098083
	74.300000	0.366144	-0.000382	0.098091
	74.400000	0.366002	-0.000290	0.098088
	74.500000	0.367044	-0.000352	0.098090
	74.600000	0.368282	-0.000283	0.098088
	74.700000	0.368802	-0.000221	0.098097
	74.800000	0.366353	-0.000313	0.098102
	74.900000	0.368583	-0.000260	0.098088
	75.000000	0.368361	-0.000280	0.098092
	75.100000	0.367309	-0.000244	0.098089
	75.200000	0.367647	-0.000286	0.098092
	75.300000	0.366141	-0.000313	0.098091
	75.400000	0.367665	-0.000217	0.098094
	75.500000	0.367942	-0.000283	0.098094
	75.600000	0.367873	-0.000349	0.098091
	75.700000	0.366093	-0.000438	0.098092
	75.800000	0.368728	-0.000513	0.098093
	75.900000	0.368641	-0.000221	0.098091
	76.000000	0.370081	-0.000260	0.098091
	76.100000	0.367737	-0.000375	0.098091
	76.200000	0.370538	-0.000332	0.098086
	76.300000	0.369679	-0.000109	0.098095
	76.400000	0.369675	-4.298843E-5	0.098094
	76.500000	0.370929	-0.000300	0.098086
	76.600000	0.369975	-0.000188	0.098096
	76.700000	0.370053	-0.000204	0.098086
	76.800000	0.371333	-0.000115	0.098085
	76.900000	0.372060	-0.000277	0.098091
	77.000000	0.370058	-0.000221	0.098090
	77.100000	0.369882	-0.000263	0.098088
	77.200000	0.370001	-0.000326	0.098092
	77.300000	0.370997	-0.000296	0.098088
	77.400000	0.370546	-0.000277	0.098087
	77.500000	0.370479	-0.000184	0.098083
	77.600000	0.371250	-0.000161	0.098100
	77.700000	0.370485	-0.000277	0.098086
	77.800000	0.369720	-0.000329	0.098090
	77.900000	0.368804	-0.000372	0.098092
	78.000000	0.369230	-0.000329	0.098097
	78.100000	0.369558	-0.000227	0.098096
	78.200000	0.370793	-0.000487	0.098097
	78.300000	0.372145	-0.000385	0.098088
	78.400000	0.370156	-0.000336	0.098088
	78.500000	0.367580	-0.000398	0.098089
	78.600000	0.370314	-0.000408	0.098105
	78.700000	0.370878	-0.000369	0.098094
	78.800000	0.369705	-0.000507	0.098091
	78.900000	0.369212	-0.000415	0.098095
	79.000000	0.370712	-0.000211	0.098089
	79.100000	0.369251	-0.000273	0.098094
	79.200000	0.367939	-0.000260	0.098089
	79.300000	0.369156	-0.000332	0.098093
	79.400000	0.368477	-0.000260	0.098085
	79.500000	0.369132	-0.000214	0.098096
	79.600000	0.368970	-0.000191	0.098088
	79.700000	0.370300	-0.000230	0.098094
	79.800000	0.369876	-0.000300	0.098094
	79.900000	0.370096	-0.000211	0.098096
	80.000000	0.369923	-0.000171	0.098093
	80.100000	0.368382	-0.000207	0.098091
	80.200000	0.370703	-0.000283	0.098097
	80.300000	0.368286	-0.000142	0.098095
	80.400000	0.367710	-0.000293	0.098090
	80.500000	0.370116	-0.000309	0.098089
	80.600000	0.367207	-0.000244	0.098088
	80.700000	0.367792	-0.000342	0.098089
	80.800000	0.368643	-0.000135	0.098094
	80.900000	0.367344	-0.000112	0.098087
	81.000000	0.370749	-0.000194	0.098091
	81.100000	0.370201	-0.000316	0.098097
	81.200000	0.368083	-0.000165	0.098087
	81.300000	0.369072	-0.000316	0.098092
	81.400000	0.368292	-0.000392	0.098091
	81.500000	0.369503	-1.338696E-5	0.098088
	81.600000	0.369821	-0.000461	0.098081
	81.700000	0.369651	-0.000145	0.098085
	81.800000	0.371239	-0.000211	0.098092
	81.900000	0.369954	-0.000224	0.098093
	82.000000	0.370045	-0.000277	0.098093
	82.100000	0.371005	-8.903516E-5	0.098091
	82.200000	0.371817	-0.000115	0.098099
	82.300000	0.370910	-0.000270	0.098094
	82.400000	0.372142	-0.000372	0.098090
	82.500000	0.371513	-0.000148	0.098095
	82.600000	0.370306	-0.000211	0.098092
	82.700000	0.370638	-0.000240	0.098094
	82.800000	0.369875	-0.000230	0.098094
	82.900000	0.369051	-0.000224	0.098096
	83.000000	0.369946	-0.000188	0.098085
	83.100000	0.370055	-0.000306	0.098088
	83.200000	0.370467	-0.000253	0.098090
	83.300000	0.370787	-0.000191	0.098084
	83.400000	0.369988	-0.000122	0.098098
	83.500000	0.371253	-0.000290	0.098089
	83.600000	0.369765	-0.000300	0.098096
	83.700000	0.370973	-0.000306	0.098093
	83.800000	0.371308	-0.000296	0.098087
	83.900000	0.367865	-0.000313	0.098077
	84.000000	0.369739	-0.000336	0.098087
	84.100000	0.369426	-0.000352	0.098090
	84.200000	0.372295	-0.000342	0.098093
	84.300000	0.370616	-0.000401	0.098081
	84.400000	0.372561	-0.000362	0.098098
	84.500000	0.370190	-0.000152	0.098088
	84.600000	0.368646	-0.000105	0.098083
	84.700000	0.370846	-0.000148	0.098091
	84.800000	0.371326	-1.009791E-5	0.098091
	84.900000	0.371830	-0.000201	0.098093
	85.000000	0.371706	-0.000592	0.098091
	85.100000	0.371016	-0.000425	0.098090
	85.200000	0.372312	-0.000474	0.098093
	85.300000	0.371739	-0.000138	0.098086
	85.400000	0.372367	-1.667601E-5	0.098087
	85.500000	0.372783	-0.000129	0.098090
	85.600000	0.370359	-0.000158	0.098093
	85.700000	0.370402	-7.258990E-5	0.098095
	85.800000	0.372109	-0.000122	0.098086
	85.900000	0.371529	-6.601179E-5	0.098089
	86.000000	0.372600	-0.000267	0.098092
	86.100000	0.371133	-0.000115	0.098087
	86.200000	0.372255	-0.000237	0.098088
	86.300000	0.371376	-0.000207	0.098092
	86.400000	0.370986	-0.000148	0.098088
	86.500000	0.369356	-0.000138	0.098087
	86.600000	0.371609	-0.000145	0.098088
	86.700000	0.370595	-0.000181	0.098088
	86.800000	0.372099	-0.000224	0.098089
	86.900000	0.370514	-8.574610E-5	0.098081
	87.000000	0.371543	-0.000188	0.098092
	87.100000	0.373087	6.347349E-6	0.098093
	87.200000	0.374824	-0.000115	0.098082
	87.300000	0.370360	-0.000132	0.098095
	87.400000	0.370469	-0.000234	0.098088
	87.500000	0.370855	-0.000339	0.098087
	87.600000	0.373817	-0.000211	0.098090
	87.700000	0.373562	-0.000207	0.098081
	87.800000	0.373581	-0.000273	0.098093
	87.900000	0.372709	-0.000201	0.098087
	88.000000	0.370192	-0.000362	0.098084
	88.100000	0.372772	-0.000263	0.098094
	88.200000	0.372509	-0.000359	0.098095
	88.300000	0.372334	-0.000237	0.098086
	88.400000	0.373144	-0.000336	0.098091
	88.500000	0.371527	-0.000244	0.098098
	88.600000	0.370686	-0.000277	0.098093
	88.700000	0.370851	-0.000339	0.098089
	88.800000	0.371141	-0.000378	0.098085
	88.900000	0.373099	-0.000323	0.098091
	89.000000	0.371119	-0.000313	0.098092
	89.100000	0.372079	-0.000355	0.098093
	89.200000	0.371129	-0.000365	0.098091
	89.300000	0.370961	-0.000260	0.098097
	89.400000	0.370422	-0.000165	0.098096
	89.500000	0.371478	-0.000184	0.098087
	89.600000	0.370739	-0.000296	0.098090
	89.700000	0.371017	-0.000207	0.098091
	89.800000	0.370450	-0.000188	0.098083
	89.900000	0.373862	-0.000253	0.098085
	90.000000	0.372839	-8.574610E-5	0.098086
	90.100000	0.371221	-0.000431	0.098084
	90.200000	0.370839	-0.000178	0.098089
	90.300000	0.371846	-0.000273	0.098078
	90.400000	0.370976	-0.000339	0.098085
	90.500000	0.371889	-0.000207	0.098095
	90.600000	0.371271	-5.943369E-5	0.098088
	90.700000	0.371211	-0.000207	0.098087
	90.800000	0.372428	-0.000253	0.098087
	90.900000	0.370629	-0.000175	0.098091
	91.000000	0.372657	-0.000230	0.098096
	91.100000	0.371593	-0.000175	0.098093
	91.200000	0.371860	-5.943369E-5	0.098087
	91.300000	0.372776	-0.000211	0.098083
	91.400000	0.370050	-0.000158	0.098094
	91.500000	0.372597	-0.000198	0.098087
	91.600000	0.373950	-0.000168	0.098079
	91.700000	0.371052	-9.232421E-5	0.098085
	91.800000	0.370512	-7.916800E-5	0.098092
	91.900000	0.373139	-0.000129	0.098094
	92.000000	0.369656	-0.000132	0.098092
	92.100000	0.373141	-8.903516E-5	0.098084
	92.200000	0.370455	-0.000263	0.098090
	92.300000	0.374426	-0.000198	0.098096
	92.400000	0.371883	-0.000224	0.098082
	92.500000	0.372103	-0.000280	0.098086
	92.600000	0.371127	-7.587895E-5	0.098089
	92.700000	0.373187	-0.000145	0.098093
	92.800000	0.372426	-0.000576	0.098084
	92.900000	0.372555	-2.325412E-5	0.098090
	93.000000	0.370733	-0.000401	0.098081
	93.100000	0.372175	-0.000138	0.098101
	93.200000	0.372951	-0.000115	0.098093
	93.300000	0.373098	-0.000105	0.098086
	93.400000	0.373482	-0.000135	0.098098
	93.500000	0.373619	-0.000211	0.098083
	93.600000	0.372264	-0.000152	0.098088
	93.700000	0.371099	-0.000178	0.098090
	93.800000	0.374500	-0.000194	0.098093
	93.900000	0.373153	-0.000204	0.098093
	94.000000	0.375778	-0.000227	0.098091
	94.100000	0.374410	-0.000230	0.098092
	94.200000	0.371496	-2.654317E-5	0.098087
	94.300000	0.373303	-0.000477	0.098099
	94.400000	0.375144	-0.000129	0.098095
	94.500000	0.374773	-0.000378	0.098089
	94.600000	0.373652	-6.601179E-5	0.098091
	94.700000	0.372269	-0.000198	0.098093
	94.800000	0.376317	-0.000425	0.098095
	94.900000	0.371730	-0.000385	0.098098
	95.000000	0.376574	-0.000372	0.098094
	95.100000	0.376374	-0.000418	0.098087
	95.200000	0.376644	-0.000477	0.098093
	95.300000	0.371704	-0.000313	0.098086
	95.400000	0.379896	-0.000395	0.098096
	95.500000	0.376174	-0.000227	0.098091
	95.600000	0.380363	-0.000309	0.098091
	95.700000	0.377568	-0.000359	0.098097
	95.800000	0.372853	-0.000204	0.098094
	95.900000	0.377810	-0.000250	0.098094
	96.000000	0.377084	-0.000434	0.098083
	96.100000	0.379135	-0.000263	0.098084
	96.200000	0.378895	-0.000204	0.098087
	96.300000	0.373219	-0.000260	0.098092
	96.400000	0.373152	-0.000145	0.098074
	96.500000	0.371167	-0.000372	0.098096
	96.600000	0.373150	-0.000332	0.098086
	96.700000	0.371989	-0.000401	0.098086
	96.800000	0.374412	-0.000290	0.098095
	96.900000	0.372722	-0.000359	0.098086
	97.000000	0.373305	-0.000300	0.098095
	97.100000	0.376118	-0.000346	0.098090
	97.200000	0.372919	-0.000313	0.098090
	97.300000	0.374138	-0.000398	0.098093
	97.400000	0.375179	-0.000214	0.098088
	97.500000	0.372509	-0.000365	0.098087
	97.600000	0.375600	-0.000286	0.098085
	97.700000	0.375347	-0.000329	0.098087
	97.800000	0.373190	-0.000181	0.098082
	97.900000	0.373853	-0.000263	0.098091
	98.000000	0.374858	-0.000280	0.098086
	98.100000	0.373281	-0.000221	0.098083
	98.200000	0.373424	-0.000451	0.098093
	98.300000	0.374184	-0.000339	0.098091
	98.400000	0.377395	-0.000161	0.098095
	98.500000	0.376857	-0.000293	0.098084
	98.600000	0.374154	-0.000382	0.098089
	98.700000	0.372953	-0.000326	0.098091
	98.800000	0.374721	-0.000250	0.098090
	98.900000	0.374170	-0.000257	0.098083
	99.000000	0.371668	-0.000158	0.098087
	99.100000	0.373318	-0.000214	0.098081
	99.200000	0.373709	-0.000375	0.098088
	99.300000	0.371590	-0.000457	0.098087
	99.400000	0.375787	-0.000418	0.098084
	99.500000	0.375964	-0.000415	0.098094
	99.600000	0.372765	-0.000487	0.098096
	99.700000	0.373824	-0.000546	0.098083
	99.800000	0.375320	-0.000375	0.098088
	99.900000	0.376521	-0.000398	0.098086
	100.000000	0.374158	-0.000372	0.098093
	100.100000	0.374589	-0.000431	0.098088
	100.200000	0.373529	-0.000323	0.098092
	100.300000	0.374994	-0.000283	0.098091
	100.400000	0.375430	-0.000184	0.098082
	100.500000	0.374965	-0.000224	0.098090
	100.600000	0.373569	-0.000230	0.098093
	100.700000	0.373141	-0.000175	0.098092
	100.800000	0.373404	-0.000277	0.098081
	100.900000	0.373920	-0.000247	0.098094
	101.000000	0.374361	-0.000244	0.098090
	101.100000	0.374173	-0.000207	0.098088
	101.200000	0.375571	-0.000257	0.097984
	101.300000	0.374353	-0.000349	0.098081
	101.400000	0.375004	-0.000349	0.098092
	101.500000	0.374565	-0.000217	0.098084
	101.600000	0.374537	-0.000204	0.098082
	101.700000	0.374102	-0.000244	0.098086
	101.800000	0.373054	-0.000355	0.098097
	101.900000	0.374079	-0.000204	0.098094
	102.000000	0.373091	-0.000309	0.098088
	102.100000	0.372373	-0.000332	0.098098
	102.200000	0.375370	-0.000211	0.098086
	102.300000	0.374498	-0.000217	0.098087
	102.400000	0.372566	-0.000293	0.098092
	102.500000	0.374992	-0.000270	0.098083
	102.600000	0.374499	-0.000188	0.098093
	102.700000	0.375266	-0.000240	0.098090
	102.800000	0.372795	-0.000194	0.098092
	102.900000	0.372988	-0.000155	0.098083
	103.000000	0.372516	-0.000293	0.098084
	103.100000	0.373482	-0.000112	0.098082
	103.200000	0.373455	-0.000132	0.098081
	103.300000	0.374431	-0.000194	0.098088
	103.400000	0.374216	-0.000244	0.098082
	103.500000	0.372982	-0.000240	0.098086
	103.600000	0.374085	-0.000178	0.098087
	103.700000	0.375988	-3.969938E-5	0.098092
	103.800000	0.373469	-5.614464E-5	0.098082
	103.900000	0.375565	-0.000184	0.098090
	104.000000	0.373818	-0.000237	0.098082
	104.100000	0.375482	-0.000250	0.098082
	104.200000	0.375617	-0.000260	0.098091
	104.300000	0.376052	-0.000556	0.098087
	104.400000	0.374881	-0.000609	0.098084
	104.500000	0.376038	-0.000257	0.098083
	104.600000	0.374558	-0.000411	0.098085
	104.700000	0.377558	-0.000349	0.098088
	104.800000	0.376528	-0.000405	0.098087
	104.900000	0.374885	-0.000342	0.098083
	105.000000	0.376212	-0.000497	0.098086
	105.100000	0.374651	-0.000425	0.098091
	105.200000	0.376491	-0.000457	0.098077
	105.300000	0.373667	-0.000408	0.098086
	105.400000	0.375262	-0.000500	0.098085
	105.500000	0.374832	-0.000395	0.098089
	105.600000	0.375122	-0.000467	0.098085
	105.700000	0.376564	-0.000240	0.098088
	105.800000	0.374646	-0.000369	0.098088
	105.900000	0.374335	-0.000332	0.098085
	106.000000	0.376275	-0.000319	0.098091
	106.100000	0.373952	-0.000257	0.098086
	106.200000	0.376087	-0.000385	0.098091
	106.300000	0.375141	-0.000309	0.098093
	106.400000	0.374769	-0.000342	0.098088
	106.500000	0.375067	-0.000244	0.098085
	106.600000	0.376063	-0.000392	0.098083
	106.700000	0.375052	-0.000303	0.098095
	106.800000	0.376250	-0.000191	0.098083
	106.900000	0.373436	-0.000336	0.098087
	107.000000	0.374626	-0.000359	0.098082
	107.100000	0.374838	-0.000487	0.098085
	107.200000	0.376963	-0.000477	0.098086
	107.300000	0.372950	-0.000378	0.098092
	107.400000	0.374560	-0.000461	0.098086
	107.500000	0.375104	-0.000253	0.098090
	107.600000	0.374308	-0.000313	0.098091
	107.700000	0.374688	-0.000234	0.098093
	107.800000	0.374242	-0.000165	0.098086
	107.900000	0.376260	-0.000273	0.098090
	108.000000	0.375926	-0.000316	0.098085
	108.100000	0.375537	-0.000349	0.098088
	108.200000	0.376994	-0.000260	0.098087
	108.300000	0.373886	-0.000385	0.098076
	108.400000	0.376681	-0.000290	0.098078
	108.500000	0.374829	-0.000194	0.098090
	108.600000	0.377460	-0.000428	0.098091
	108.700000	0.374680	-0.000283	0.098090
	108.800000	0.375330	-0.000313	0.098082
	108.900000	0.376987	-0.000319	0.098088
	109.000000	0.375791	-0.000293	0.098085
	109.100000	0.376972	-0.000247	0.098089
	109.200000	0.376316	-0.000313	0.098087
	109.300000	0.375227	-0.000359	0.097268
	109.400000	0.375447	-0.000309	0.098086
	109.500000	0.374327	-0.000217	0.098083
	109.600000	0.374700	-0.000316	0.098085
	109.700000	0.376151	-0.000355	0.098080
	109.800000	0.378250	-0.000494	0.098086
	109.900000	0.376802	-0.000444	0.098084
	110.000000	0.376510	-0.000388	0.098084
	110.100000	0.374769	-0.000319	0.098085
	110.200000	0.375864	-0.000230	0.098095
	110.300000	0.377891	-0.000237	0.098092
	110.400000	0.377121	-0.000382	0.098088
	110.500000	0.376803	-0.000411	0.098082
	110.600000	0.375844	-0.000316	0.098088
	110.700000	0.376824	-0.000257	0.098094
	110.800000	0.374374	-0.000286	0.098087
	110.900000	0.376591	-0.000326	0.098087
	111.000000	0.375682	-0.000296	0.098089
	111.100000	0.374451	-0.000405	0.098087
	111.200000	0.376896	-0.000244	0.098086
	111.300000	0.375399	-0.000273	0.098084
	111.400000	0.375525	-0.000378	0.098095
	111.500000	0.376895	-0.000306	0.098091
	111.600000	0.376390	-0.000184	0.098079
	111.700000	0.377282	-0.000145	0.098089
	111.800000	0.375306	-0.000188	0.098089
	111.900000	0.374469	-0.000234	0.098089
	112.000000	0.375229	-0.000283	0.098087
	112.100000	0.375808	-0.000300	0.098089
	112.200000	0.373980	-0.000352	0.098090
	112.300000	0.374061	-0.000306	0.098084
	112.400000	0.374426	-0.000388	0.098087
	112.500000	0.375770	-0.000309	0.098084
	112.600000	0.372865	-0.000395	0.098084
	112.700000	0.376868	-0.000382	0.098091
	112.800000	0.376943	-0.000362	0.098087
	112.900000	0.373971	-0.000319	0.098091
	113.000000	0.376631	-0.000332	0.098081
	113.100000	0.375739	-0.000319	0.098091
	113.200000	0.373089	-0.000401	0.098086
	113.300000	0.373896	-0.000359	0.098083
	113.400000	0.374312	-0.000543	0.098084
	113.500000	0.375514	-0.000303	0.098087
	113.600000	0.375019	-0.000480	0.098087
	113.700000	0.375469	-0.000457	0.098086
	113.800000	0.377111	-0.000365	0.098081
	113.900000	0.375343	-0.000487	0.098090
	114.000000	0.375651	-0.000500	0.098089
	114.100000	0.374763	-0.000533	0.098090
	114.200000	0.375891	-0.000336	0.098087
	114.300000	0.377014	-0.000398	0.098094
	114.400000	0.375781	-0.000392	0.098093
	114.500000	0.374785	-0.000425	0.098089
	114.600000	0.375008	-0.000464	0.098083
	114.700000	0.375532	-0.000250	0.098082
	114.800000	0.376686	-0.000418	0.098088
	114.900000	0.375513	-0.000480	0.098088
	115.000000	0.376121	-0.000392	0.098099
	115.100000	0.375032	-0.000352	0.098094
	115.200000	0.375077	-0.000484	0.098086
	115.300000	0.373904	-0.000349	0.098092
	115.400000	0.374230	-0.000326	0.098086
	115.500000	0.376823	-0.000273	0.098080
	115.600000	0.376113	-0.000221	0.098081
	115.700000	0.375638	-0.000211	0.098082
	115.800000	0.375320	-0.000263	0.098086
	115.900000	0.376622	-0.000405	0.098088
	116.000000	0.376574	-0.000461	0.098087
	116.100000	0.376945	-0.000392	0.098082
	116.200000	0.375669	-0.000375	0.098091
	116.300000	0.377234	-0.000369	0.098089
	116.400000	0.375024	-0.000204	0.098085
	116.500000	0.374317	-0.000319	0.098092
	116.600000	0.375767	-0.000161	0.098082
	116.700000	0.376560	-0.000280	0.098088
	116.800000	0.376071	-0.000329	0.098092
	116.900000	0.377092	-0.000277	0.098083
	117.000000	0.376433	-0.000194	0.098093
	117.100000	0.375309	-0.000207	0.098094
	117.200000	0.375059	-0.000401	0.098089
	117.300000	0.377051	-0.000444	0.098087
	117.400000	0.375297	-0.000533	0.098087
	117.500000	0.375420	-0.000428	0.098075
	117.600000	0.375413	-0.000372	0.098090
	117.700000	0.377430	-0.000267	0.098078
	117.800000	0.376562	-0.000303	0.098089
	117.900000	0.374638	-0.000349	0.098089
	118.000000	0.374063	-0.000198	0.098091
	118.100000	0.375310	-0.000119	0.098095
	118.200000	0.374424	-0.000280	0.098086
	118.300000	0.375721	-0.000217	0.098094
	118.400000	0.376334	-0.000240	0.098078
	118.500000	0.375910	-0.000329	0.098091
	118.600000	0.376174	-0.000277	0.098086
	118.700000	0.374463	-0.000198	0.098080
	118.800000	0.374468	-0.000309	0.098079
	118.900000	0.376169	-0.000277	0.098081
	119.000000	0.374481	-0.000234	0.098086
	119.100000	0.375994	-0.000198	0.098091
	119.200000	0.374407	-0.000181	0.098092
	119.300000	0.376697	-0.000181	0.098085
	119.400000	0.375560	-0.000234	0.098087
	119.500000	0.377164	-0.000207	0.098085
	119.600000	0.376656	-0.000204	0.098078
	119.700000	0.375909	-0.000175	0.098089
	119.800000	0.376189	-0.000161	0.098077
	119.900000	0.374047	-0.000132	0.098090

