LabVIEW Measurement	
Writer_Version	2
Reader_Version	2
Separator	Tab
Decimal_Separator	.
Multi_Headings	Yes
X_Columns	No
Time_Pref	Relative
Operator	stud40
Description	Saved t, TC, RISC, PT100
Date	2023/03/21
Time	18:50:24.741123199462890625
***End_of_Header***	
	
Channels	4				
Samples	1200	1200	1200	1200	
Date	2023/03/21	2023/03/21	2023/03/21	2023/03/21	
Time	18:50:24.741123199462890625	18:50:24.741123199462890625	18:50:24.741123199462890625	18:50:24.741123199462890625	
X_Dimension	Time	Time	Time	Time	
X0	0.0000000000000000E+0	0.0000000000000000E+0	0.0000000000000000E+0	0.0000000000000000E+0	
Delta_X	1.000000	1.000000	1.000000	1.000000	
***End_of_Header***					
X_Value	Untitled	Untitled 1	Untitled 2	Untitled 3	Comment
	0.000000	0.381007	-0.000138	0.098189
	0.100000	0.380589	-5.285559E-5	0.098194
	0.200000	0.381186	-0.000122	0.098190
	0.300000	0.382748	-0.000115	0.098196
	0.400000	0.380028	-0.000336	0.098192
	0.500000	0.380308	-9.890231E-5	0.098193
	0.600000	0.382176	-0.000257	0.098191
	0.700000	0.380897	-0.000596	0.098191
	0.800000	0.379507	-0.000628	0.098191
	0.900000	0.379972	-0.000635	0.098196
	1.000000	0.381541	5.520784	0.098200
	1.100000	0.379515	9.920251	0.098189
	1.200000	0.381425	9.919310	0.098194
	1.300000	0.379479	9.919143	0.098187
	1.400000	0.380448	9.919139	0.098192
	1.500000	0.383526	9.919093	0.098192
	1.600000	0.381610	9.919330	0.098188
	1.700000	0.381072	9.919294	0.098195
	1.800000	0.379079	9.919422	0.098192
	1.900000	0.379454	9.919491	0.098192
	2.000000	0.380793	2.540695	0.098182
	2.100000	0.379968	-0.000398	0.098197
	2.200000	0.378464	-0.000401	0.098193
	2.300000	0.380357	-0.000201	0.098191
	2.400000	0.376763	-0.000316	0.098192
	2.500000	0.381410	-0.000349	0.098194
	2.600000	0.380642	-0.000382	0.098191
	2.700000	0.381641	-0.000375	0.098193
	2.800000	0.378702	-0.000582	0.098188
	2.900000	0.380056	-0.000372	0.098196
	3.000000	0.380519	-0.000405	0.098187
	3.100000	0.383349	-0.000566	0.098191
	3.200000	0.379546	-0.000444	0.098189
	3.300000	0.380809	-0.000477	0.098185
	3.400000	0.379974	-0.000474	0.098198
	3.500000	0.378931	-0.000415	0.098192
	3.600000	0.381015	-0.000579	0.098193
	3.700000	0.382936	-0.000434	0.098191
	3.800000	0.380895	-0.000346	0.098189
	3.900000	0.380411	-0.000582	0.098195
	4.000000	0.379091	-0.000349	0.098192
	4.100000	0.380206	-0.000349	0.098188
	4.200000	0.379194	-0.000309	0.098191
	4.300000	0.377271	-0.000425	0.098202
	4.400000	0.379167	-0.000421	0.098194
	4.500000	0.378570	-0.000454	0.098184
	4.600000	0.378747	-0.000385	0.098186
	4.700000	0.380212	-0.000355	0.098189
	4.800000	0.379638	-0.000342	0.098189
	4.900000	0.379733	-0.000372	0.098194
	5.000000	0.376634	-0.000300	0.098192
	5.100000	0.377543	-0.000329	0.098190
	5.200000	0.376581	-0.000385	0.098193
	5.300000	0.375397	-0.000418	0.098190
	5.400000	0.378409	-0.000451	0.098199
	5.500000	0.375323	-0.000441	0.098194
	5.600000	0.375594	-0.000444	0.098196
	5.700000	0.373505	-0.000523	0.098194
	5.800000	0.374216	-0.000494	0.098188
	5.900000	0.372290	-0.000586	0.098195
	6.000000	0.374138	-0.000441	0.098192
	6.100000	0.371963	-0.000352	0.098192
	6.200000	0.370498	-0.000500	0.098198
	6.300000	0.371451	-0.000484	0.098191
	6.400000	0.369260	-0.000398	0.098193
	6.500000	0.370343	-0.000401	0.098189
	6.600000	0.367080	-0.000444	0.098191
	6.700000	0.366948	-0.000438	0.098191
	6.800000	0.364529	-0.000273	0.098190
	6.900000	0.366224	-0.000375	0.098193
	7.000000	0.363884	-0.000339	0.098194
	7.100000	0.361265	-0.000244	0.098191
	7.200000	0.360521	-0.000313	0.098190
	7.300000	0.361065	-0.000319	0.098194
	7.400000	0.360726	-0.000329	0.098195
	7.500000	0.360053	-0.000332	0.098196
	7.600000	0.358479	-0.000277	0.098195
	7.700000	0.356354	-0.000428	0.098192
	7.800000	0.356324	-0.000487	0.098190
	7.900000	0.356207	-0.000398	0.098193
	8.000000	0.354603	-0.000283	0.098192
	8.100000	0.350025	-0.000359	0.098190
	8.200000	0.350604	-0.000319	0.098193
	8.300000	0.350081	-0.000362	0.098199
	8.400000	0.350006	-0.000372	0.098193
	8.500000	0.349641	-0.000313	0.098190
	8.600000	0.350334	-0.000286	0.098188
	8.700000	0.347747	-0.000283	0.098184
	8.800000	0.344901	-0.000395	0.098190
	8.900000	0.344711	-0.000211	0.098201
	9.000000	0.344101	-0.000257	0.098187
	9.100000	0.342923	-0.000283	0.098190
	9.200000	0.341432	-0.000375	0.098192
	9.300000	0.340732	-0.000270	0.098193
	9.400000	0.340265	-0.000267	0.098189
	9.500000	0.338217	-0.000217	0.098192
	9.600000	0.338003	-0.000280	0.098194
	9.700000	0.337003	-0.000296	0.098192
	9.800000	0.338142	-0.000201	0.098192
	9.900000	0.331390	-0.000230	0.098193
	10.000000	0.332827	-0.000257	0.098195
	10.100000	0.330583	-0.000359	0.098189
	10.200000	0.334595	-0.000428	0.098193
	10.300000	0.328489	-0.000263	0.098187
	10.400000	0.329024	-0.000240	0.098192
	10.500000	0.329539	-0.000237	0.098195
	10.600000	0.329085	-0.000283	0.098193
	10.700000	0.326434	-0.000355	0.098186
	10.800000	0.328193	-0.000323	0.098186
	10.900000	0.326114	-0.000388	0.098192
	11.000000	0.325674	-0.000319	0.098193
	11.100000	0.325295	-0.000421	0.098190
	11.200000	0.325329	-0.000382	0.098190
	11.300000	0.324467	-0.000352	0.098192
	11.400000	0.323017	-0.000319	0.098187
	11.500000	0.321912	-0.000293	0.098195
	11.600000	0.321579	-0.000290	0.098188
	11.700000	0.321287	-0.000296	0.098204
	11.800000	0.320367	-0.000411	0.098189
	11.900000	0.318211	-0.000405	0.098191
	12.000000	0.319733	-0.000306	0.098192
	12.100000	0.318754	-0.000280	0.098191
	12.200000	0.316268	-0.000336	0.098189
	12.300000	0.316571	-0.000352	0.098193
	12.400000	0.315382	-0.000556	0.098186
	12.500000	0.316915	-0.000382	0.098193
	12.600000	0.314309	8.528459E-5	0.098195
	12.700000	0.315726	-0.000181	0.098187
	12.800000	0.313325	-0.000415	0.098194
	12.900000	0.312838	-0.000359	0.098182
	13.000000	0.312546	-0.000369	0.098187
	13.100000	0.312418	-0.000434	0.098185
	13.200000	0.310606	-0.000408	0.098189
	13.300000	0.310688	-0.000444	0.098199
	13.400000	0.310738	-0.000385	0.098192
	13.500000	0.309868	-0.000332	0.098020
	13.600000	0.309564	-0.000461	0.098193
	13.700000	0.308877	-0.000398	0.098187
	13.800000	0.307099	-0.000309	0.098190
	13.900000	0.308745	-0.000214	0.098186
	14.000000	0.307409	-0.000309	0.098191
	14.100000	0.306782	-0.000431	0.098192
	14.200000	0.307841	-0.000316	0.098191
	14.300000	0.304410	-0.000365	0.098193
	14.400000	0.304804	-0.000385	0.098189
	14.500000	0.306152	-0.000415	0.098192
	14.600000	0.305604	-0.000346	0.098186
	14.700000	0.302382	-0.000283	0.098194
	14.800000	0.304945	-0.000326	0.098187
	14.900000	0.305066	-0.000207	0.098191
	15.000000	0.305446	-0.000375	0.098191
	15.100000	0.303362	-0.000323	0.098189
	15.200000	0.302348	-0.000401	0.098189
	15.300000	0.302599	-0.000369	0.098196
	15.400000	0.300631	-0.000349	0.098188
	15.500000	0.301566	-0.000352	0.098196
	15.600000	0.301679	-0.000355	0.098192
	15.700000	0.301096	-0.000401	0.098196
	15.800000	0.302368	-0.000290	0.098187
	15.900000	0.300999	-0.000277	0.098194
	16.000000	0.300495	-0.000339	0.098192
	16.100000	0.297687	-0.000326	0.098188
	16.200000	0.300133	-0.000300	0.098192
	16.300000	0.300589	-0.000323	0.098185
	16.400000	0.299537	-0.000224	0.098192
	16.500000	0.299646	-0.000105	0.098187
	16.600000	0.300106	-8.903516E-5	0.098195
	16.700000	0.298258	-0.000296	0.098185
	16.800000	0.299728	-0.000240	0.098197
	16.900000	0.295613	-0.000132	0.098189
	17.000000	0.297230	-0.000165	0.098192
	17.100000	0.297234	-0.000257	0.098189
	17.200000	0.295358	-0.000148	0.098193
	17.300000	0.297892	-0.000184	0.098187
	17.400000	0.296743	-0.000181	0.098186
	17.500000	0.296015	-0.000395	0.098192
	17.600000	0.296593	-0.000277	0.098191
	17.700000	0.298858	-0.000326	0.098194
	17.800000	0.297063	-0.000365	0.098194
	17.900000	0.295694	-0.000415	0.098197
	18.000000	0.295230	-0.000408	0.098189
	18.100000	0.295908	-0.000497	0.098191
	18.200000	0.295308	-0.000411	0.098198
	18.300000	0.297081	-0.000355	0.098186
	18.400000	0.296086	-0.000349	0.098186
	18.500000	0.293395	-0.000362	0.098193
	18.600000	0.295326	-0.000484	0.098184
	18.700000	0.296051	-0.000553	0.098189
	18.800000	0.296731	-0.000438	0.098190
	18.900000	0.294436	-0.000313	0.098191
	19.000000	0.296631	-0.000234	0.098186
	19.100000	0.293601	-0.000306	0.098189
	19.200000	0.293637	-0.000230	0.098191
	19.300000	0.293797	-0.000112	0.098187
	19.400000	0.294525	-0.000309	0.098193
	19.500000	0.294149	-0.000418	0.098189
	19.600000	0.294416	-0.000207	0.098188
	19.700000	0.296604	-0.000267	0.098192
	19.800000	0.295476	-0.000293	0.098187
	19.900000	0.292687	-0.000332	0.098192
	20.000000	0.293536	-0.000207	0.098186
	20.100000	0.294289	-0.000286	0.098191
	20.200000	0.295653	-0.000224	0.098190
	20.300000	0.293675	-0.000158	0.098190
	20.400000	0.293885	-0.000178	0.098186
	20.500000	0.295686	-0.000227	0.098189
	20.600000	0.293611	-0.000359	0.098194
	20.700000	0.292736	-0.000395	0.098190
	20.800000	0.294516	-0.000250	0.098183
	20.900000	0.294880	-0.000253	0.098186
	21.000000	0.295944	-0.000346	0.098186
	21.100000	0.292892	-0.000434	0.098190
	21.200000	0.296069	-0.000171	0.098190
	21.300000	0.295634	-0.000142	0.098184
	21.400000	0.295831	-0.000378	0.098188
	21.500000	0.294619	-0.000421	0.098190
	21.600000	0.295410	-0.000421	0.098188
	21.700000	0.294176	-0.000132	0.098184
	21.800000	0.294045	-0.000303	0.098198
	21.900000	0.295746	-0.000362	0.098190
	22.000000	0.294481	-0.000234	0.098194
	22.100000	0.295217	-0.000253	0.098196
	22.200000	0.294788	-0.000260	0.098191
	22.300000	0.293797	-0.000240	0.098191
	22.400000	0.295918	-0.000339	0.098186
	22.500000	0.295179	-0.000237	0.098186
	22.600000	0.295528	-0.000290	0.098194
	22.700000	0.296276	-0.000267	0.098188
	22.800000	0.295663	-0.000230	0.098184
	22.900000	0.295111	-0.000194	0.098192
	23.000000	0.297681	-0.000293	0.098185
	23.100000	0.295455	-0.000306	0.098189
	23.200000	0.296995	-0.000253	0.098192
	23.300000	0.294275	-0.000201	0.098189
	23.400000	0.295119	-0.000303	0.098189
	23.500000	0.296936	-0.000244	0.098184
	23.600000	0.295049	-0.000303	0.098186
	23.700000	0.297522	-0.000309	0.098192
	23.800000	0.298329	-0.000359	0.098195
	23.900000	0.299024	-0.000267	0.098187
	24.000000	0.297399	-0.000293	0.098192
	24.100000	0.297424	-0.000375	0.098185
	24.200000	0.296178	-0.000263	0.098187
	24.300000	0.296772	-0.000247	0.098187
	24.400000	0.298287	-0.000267	0.098188
	24.500000	0.296959	-0.000184	0.098191
	24.600000	0.298009	-0.000339	0.098187
	24.700000	0.296770	-0.000270	0.098189
	24.800000	0.298698	-0.000240	0.098193
	24.900000	0.294847	-0.000293	0.098189
	25.000000	0.296790	-0.000240	0.098191
	25.100000	0.296527	-0.000316	0.098189
	25.200000	0.296929	-0.000221	0.098181
	25.300000	0.298419	-0.000145	0.098186
	25.400000	0.298342	-0.000168	0.098185
	25.500000	0.298762	-0.000309	0.098190
	25.600000	0.299741	-0.000201	0.098193
	25.700000	0.297115	-0.000201	0.098188
	25.800000	0.297655	-0.000319	0.098196
	25.900000	0.297178	-0.000188	0.098185
	26.000000	0.297515	-0.000257	0.098185
	26.100000	0.298216	-0.000293	0.098190
	26.200000	0.297962	-0.000280	0.098183
	26.300000	0.296728	-0.000352	0.098186
	26.400000	0.295827	-0.000434	0.098188
	26.500000	0.296379	-0.000194	0.098190
	26.600000	0.300182	-0.000201	0.098186
	26.700000	0.296385	-0.000224	0.098186
	26.800000	0.296389	-0.000385	0.098187
	26.900000	0.298272	-0.000296	0.098102
	27.000000	0.298367	-0.000198	0.098185
	27.100000	0.298576	-0.000257	0.098188
	27.200000	0.301697	-0.000385	0.098195
	27.300000	0.298008	-0.000316	0.098186
	27.400000	0.299722	-0.000329	0.098183
	27.500000	0.299913	-0.000382	0.098185
	27.600000	0.302416	-0.000286	0.098184
	27.700000	0.299702	-0.000454	0.098189
	27.800000	0.300738	-0.000490	0.098191
	27.900000	0.298367	-0.000563	0.098189
	28.000000	0.299478	-0.000503	0.098188
	28.100000	0.298431	-0.000332	0.098180
	28.200000	0.299259	-0.000507	0.098191
	28.300000	0.299609	-0.000332	0.098190
	28.400000	0.301082	-0.000332	0.098189
	28.500000	0.299600	-0.000378	0.098183
	28.600000	0.300833	-0.000280	0.098183
	28.700000	0.300517	-0.000290	0.098187
	28.800000	0.300085	-0.000273	0.098190
	28.900000	0.301720	-0.000296	0.098189
	29.000000	0.300474	-0.000398	0.098182
	29.100000	0.299981	-0.000323	0.098186
	29.200000	0.301254	-0.000372	0.098185
	29.300000	0.300610	-0.000313	0.098192
	29.400000	0.301863	-0.000270	0.098189
	29.500000	0.302109	-0.000303	0.098189
	29.600000	0.299906	-0.000267	0.098192
	29.700000	0.302037	-0.000326	0.098191
	29.800000	0.301915	-0.000217	0.098186
	29.900000	0.301349	-0.000273	0.098191
	30.000000	0.301351	-0.000234	0.098188
	30.100000	0.302356	-0.000234	0.098190
	30.200000	0.305006	-0.000346	0.098187
	30.300000	0.303373	-0.000237	0.098187
	30.400000	0.303950	-0.000283	0.098186
	30.500000	0.303381	-0.000119	0.098190
	30.600000	0.303366	-0.000336	0.098189
	30.700000	0.301660	-0.000319	0.098182
	30.800000	0.301852	-0.000227	0.098182
	30.900000	0.303259	-0.000359	0.098187
	31.000000	0.302694	-0.000280	0.098186
	31.100000	0.301493	-0.000309	0.098188
	31.200000	0.305429	-0.000359	0.098183
	31.300000	0.304223	-0.000339	0.098186
	31.400000	0.307401	-0.000267	0.098194
	31.500000	0.305308	-0.000415	0.098183
	31.600000	0.304012	-0.000421	0.098191
	31.700000	0.305440	-0.000336	0.098183
	31.800000	0.304229	-0.000253	0.098185
	31.900000	0.304986	-0.000240	0.098190
	32.000000	0.303107	-0.000323	0.098193
	32.100000	0.305689	-0.000336	0.098184
	32.200000	0.305107	-0.000244	0.098182
	32.300000	0.306609	-0.000296	0.098187
	32.400000	0.306590	-0.000434	0.098194
	32.500000	0.307480	-0.000438	0.098185
	32.600000	0.307065	-0.000438	0.098185
	32.700000	0.305597	-0.000188	0.098186
	32.800000	0.306817	-0.000194	0.098187
	32.900000	0.307213	-0.000602	0.098191
	33.000000	0.306605	-0.000398	0.098181
	33.100000	0.306997	-0.000526	0.098185
	33.200000	0.309117	-0.000530	0.098189
	33.300000	0.308591	-0.000467	0.098189
	33.400000	0.308294	-0.000520	0.098185
	33.500000	0.307862	-0.000326	0.098188
	33.600000	0.309490	-0.000526	0.098191
	33.700000	0.308104	-0.000392	0.098191
	33.800000	0.307819	-0.000392	0.098193
	33.900000	0.308044	-0.000290	0.098184
	34.000000	0.310903	-0.000336	0.098182
	34.100000	0.308844	-0.000349	0.098189
	34.200000	0.308603	-0.000401	0.098191
	34.300000	0.308579	-0.000342	0.098190
	34.400000	0.310343	-0.000392	0.098186
	34.500000	0.307532	-0.000329	0.098184
	34.600000	0.309671	-0.000382	0.098186
	34.700000	0.309075	-0.000280	0.098186
	34.800000	0.311587	-0.000332	0.098194
	34.900000	0.309766	-0.000303	0.098189
	35.000000	0.310445	-0.000349	0.098187
	35.100000	0.308971	-0.000323	0.098188
	35.200000	0.311869	-0.000323	0.098188
	35.300000	0.312367	-0.000336	0.098185
	35.400000	0.312986	-0.000277	0.098187
	35.500000	0.310587	-0.000444	0.098186
	35.600000	0.311964	-0.000339	0.098192
	35.700000	0.311442	-0.000296	0.098186
	35.800000	0.310526	-0.000346	0.098186
	35.900000	0.312778	-0.000467	0.098183
	36.000000	0.312877	-0.000280	0.098194
	36.100000	0.312875	-0.000290	0.098187
	36.200000	0.313638	-0.000372	0.098188
	36.300000	0.312576	-0.000240	0.098196
	36.400000	0.314628	-0.000224	0.098184
	36.500000	0.314591	-0.000260	0.098192
	36.600000	0.312060	-0.000286	0.098186
	36.700000	0.313764	-0.000273	0.098184
	36.800000	0.313729	-0.000260	0.098187
	36.900000	0.315228	-0.000306	0.098192
	37.000000	0.313064	-0.000175	0.098186
	37.100000	0.315530	-0.000309	0.098192
	37.200000	0.314704	-0.000323	0.098190
	37.300000	0.313642	-0.000296	0.098187
	37.400000	0.315095	-0.000204	0.098187
	37.500000	0.315591	-0.000365	0.098188
	37.600000	0.314667	-0.000392	0.098183
	37.700000	0.314474	-0.000332	0.098187
	37.800000	0.315765	-0.000369	0.098185
	37.900000	0.315741	-0.000329	0.098189
	38.000000	0.315525	-0.000471	0.098186
	38.100000	0.315460	-0.000346	0.098187
	38.200000	0.315227	-0.000362	0.098189
	38.300000	0.315540	-0.000431	0.098187
	38.400000	0.317564	-0.000507	0.098185
	38.500000	0.317804	-0.000405	0.098190
	38.600000	0.318055	-0.000339	0.098188
	38.700000	0.316381	-0.000250	0.098187
	38.800000	0.317058	-0.000418	0.098186
	38.900000	0.316840	-0.000395	0.098188
	39.000000	0.317955	-0.000313	0.098191
	39.100000	0.316209	-0.000395	0.098183
	39.200000	0.316280	-0.000395	0.098181
	39.300000	0.319379	-0.000250	0.098184
	39.400000	0.317443	-0.000145	0.098184
	39.500000	0.317011	-0.000138	0.098188
	39.600000	0.316396	-0.000178	0.098190
	39.700000	0.319146	-0.000227	0.098189
	39.800000	0.316911	-0.000240	0.098193
	39.900000	0.317509	-0.000434	0.098191
	40.000000	0.318394	-0.000365	0.098193
	40.100000	0.319171	-0.000365	0.098183
	40.200000	0.317101	-0.000319	0.098186
	40.300000	0.318441	-0.000267	0.098184
	40.400000	0.319084	-0.000319	0.098186
	40.500000	0.318080	-0.000260	0.098148
	40.600000	0.318481	-0.000227	0.098190
	40.700000	0.318036	-0.000362	0.098188
	40.800000	0.319765	-0.000296	0.098188
	40.900000	0.319142	-0.000221	0.098189
	41.000000	0.319827	-0.000319	0.098188
	41.100000	0.320946	-0.000277	0.098189
	41.200000	0.320787	-0.000290	0.098183
	41.300000	0.320233	-0.000283	0.098184
	41.400000	0.319352	-0.000280	0.098188
	41.500000	0.319935	-0.000217	0.098192
	41.600000	0.320507	-0.000293	0.098179
	41.700000	0.320068	-0.000277	0.098186
	41.800000	0.320768	-0.000342	0.098187
	41.900000	0.320132	-0.000306	0.098182
	42.000000	0.320228	-0.000365	0.098182
	42.100000	0.320996	-0.000260	0.098180
	42.200000	0.321294	-0.000270	0.098186
	42.300000	0.322341	-0.000300	0.098186
	42.400000	0.321978	-0.000125	0.098193
	42.500000	0.322206	-0.000280	0.098194
	42.600000	0.320266	-0.000227	0.098194
	42.700000	0.320679	-0.000257	0.098191
	42.800000	0.322265	-0.000194	0.098181
	42.900000	0.320822	-0.000303	0.098185
	43.000000	0.323366	-0.000303	0.098192
	43.100000	0.324747	-0.000270	0.098184
	43.200000	0.323782	-0.000198	0.098187
	43.300000	0.322452	-0.000194	0.098186
	43.400000	0.323999	-0.000267	0.098184
	43.500000	0.324385	-0.000313	0.098189
	43.600000	0.324055	-0.000349	0.098188
	43.700000	0.323736	-0.000309	0.098191
	43.800000	0.324721	-0.000369	0.098186
	43.900000	0.325617	-0.000260	0.098184
	44.000000	0.324402	-0.000178	0.098184
	44.100000	0.324535	-0.000198	0.098179
	44.200000	0.323623	-0.000296	0.098186
	44.300000	0.323384	-0.000267	0.098186
	44.400000	0.324606	-0.000421	0.098186
	44.500000	0.323538	-0.000408	0.098188
	44.600000	0.326314	-0.000332	0.098183
	44.700000	0.324426	-0.000428	0.098187
	44.800000	0.323560	-0.000300	0.098184
	44.900000	0.326161	-0.000263	0.098184
	45.000000	0.321898	-0.000313	0.098180
	45.100000	0.323842	-0.000362	0.098185
	45.200000	0.324246	-0.000323	0.098185
	45.300000	0.325310	-0.000369	0.098189
	45.400000	0.326596	-0.000277	0.098183
	45.500000	0.326800	-9.890231E-5	0.098185
	45.600000	0.324669	-0.000319	0.098184
	45.700000	0.325319	-0.000253	0.098192
	45.800000	0.326026	-0.000247	0.098185
	45.900000	0.326585	-0.000293	0.098183
	46.000000	0.328597	-0.000306	0.098188
	46.100000	0.327034	-0.000267	0.098185
	46.200000	0.325604	-0.000332	0.098184
	46.300000	0.327606	-0.000401	0.098184
	46.400000	0.326109	-0.000461	0.098187
	46.500000	0.329655	-0.000332	0.098177
	46.600000	0.327705	-0.000257	0.098184
	46.700000	0.329649	-0.000372	0.098185
	46.800000	0.327765	-0.000339	0.098185
	46.900000	0.327758	-0.000277	0.098184
	47.000000	0.328494	-0.000171	0.098178
	47.100000	0.328055	-0.000283	0.098189
	47.200000	0.329495	-0.000323	0.098186
	47.300000	0.326834	-0.000227	0.098190
	47.400000	0.328403	-0.000355	0.098184
	47.500000	0.328917	-0.000270	0.098189
	47.600000	0.329045	-0.000382	0.098185
	47.700000	0.329503	-0.000448	0.098181
	47.800000	0.326773	-0.000286	0.098186
	47.900000	0.330622	-0.000339	0.098179
	48.000000	0.328616	-0.000352	0.098186
	48.100000	0.332230	-0.000355	0.098188
	48.200000	0.330218	-0.000306	0.098185
	48.300000	0.331354	-0.000155	0.098182
	48.400000	0.329784	-0.000240	0.098183
	48.500000	0.330035	-0.000221	0.098185
	48.600000	0.329585	-0.000181	0.098181
	48.700000	0.331560	-0.000207	0.098183
	48.800000	0.332130	-8.245705E-5	0.098175
	48.900000	0.331269	-0.000145	0.098187
	49.000000	0.330474	-0.000135	0.098182
	49.100000	0.333709	-0.000204	0.098184
	49.200000	0.333470	-0.000326	0.098192
	49.300000	0.330628	-0.000227	0.098182
	49.400000	0.329396	-0.000237	0.098181
	49.500000	0.330622	-0.000171	0.098184
	49.600000	0.330876	-0.000349	0.098190
	49.700000	0.329306	-0.000168	0.098187
	49.800000	0.331754	-0.000191	0.098192
	49.900000	0.332546	-0.000316	0.098181
	50.000000	0.332596	-0.000155	0.098187
	50.100000	0.332528	-0.000158	0.098185
	50.200000	0.332438	-0.000181	0.098180
	50.300000	0.332889	-0.000207	0.098181
	50.400000	0.331675	-0.000217	0.098182
	50.500000	0.332919	-0.000263	0.098184
	50.600000	0.332293	-0.000207	0.098185
	50.700000	0.331790	-0.000349	0.098185
	50.800000	0.332414	-0.000191	0.098179
	50.900000	0.333133	-0.000175	0.098186
	51.000000	0.331556	-0.000135	0.098186
	51.100000	0.332641	-0.000257	0.098181
	51.200000	0.333210	-0.000188	0.098191
	51.300000	0.333435	-0.000188	0.098182
	51.400000	0.333774	-0.000323	0.098184
	51.500000	0.336370	-0.000175	0.098187
	51.600000	0.334003	-0.000273	0.098185
	51.700000	0.333914	-0.000309	0.098183
	51.800000	0.333181	-0.000247	0.098193
	51.900000	0.333908	-0.000349	0.098185
	52.000000	0.331628	-0.000355	0.098185
	52.100000	0.334169	-0.000306	0.098190
	52.200000	0.334062	-0.000214	0.098172
	52.300000	0.331753	-0.000290	0.098184
	52.400000	0.332810	-8.245705E-5	0.098184
	52.500000	0.334129	-0.000224	0.098188
	52.600000	0.332543	-0.000244	0.098185
	52.700000	0.333597	-0.000375	0.098185
	52.800000	0.333635	-0.000221	0.098180
	52.900000	0.335219	-0.000339	0.098180
	53.000000	0.335979	-0.000306	0.098186
	53.100000	0.333336	-0.000270	0.098186
	53.200000	0.333135	-0.000240	0.098178
	53.300000	0.332116	-0.000309	0.098181
	53.400000	0.334121	-0.000253	0.098182
	53.500000	0.335603	-0.000267	0.098183
	53.600000	0.335595	-0.000263	0.098185
	53.700000	0.334999	-0.000300	0.098178
	53.800000	0.335487	-0.000105	0.098188
	53.900000	0.336590	-0.000296	0.098182
	54.000000	0.335544	-0.000474	0.098188
	54.100000	0.335184	-0.000497	0.098175
	54.200000	0.335046	-0.000428	0.098188
	54.300000	0.335939	-0.000382	0.098177
	54.400000	0.336357	-0.000342	0.098185
	54.500000	0.334708	-0.000267	0.098182
	54.600000	0.337431	-0.000224	0.098180
	54.700000	0.336409	-0.000122	0.098186
	54.800000	0.337949	-0.000372	0.098183
	54.900000	0.337961	-0.000326	0.098187
	55.000000	0.338182	-0.000293	0.098178
	55.100000	0.336447	-0.000401	0.097436
	55.200000	0.337829	-0.000230	0.098182
	55.300000	0.339317	-0.000263	0.098186
	55.400000	0.336837	-0.000211	0.098187
	55.500000	0.337755	-0.000421	0.098179
	55.600000	0.338120	-0.000234	0.098182
	55.700000	0.339136	-0.000224	0.098182
	55.800000	0.339078	-0.000253	0.098185
	55.900000	0.339827	-0.000198	0.098182
	56.000000	0.339185	-0.000273	0.098180
	56.100000	0.341190	-0.000300	0.098187
	56.200000	0.338234	-0.000303	0.098172
	56.300000	0.339771	-0.000313	0.098180
	56.400000	0.337260	-0.000270	0.098181
	56.500000	0.339430	-0.000349	0.098188
	56.600000	0.339158	-0.000355	0.098187
	56.700000	0.337343	-0.000408	0.098189
	56.800000	0.339900	-0.000369	0.098187
	56.900000	0.338739	-0.000168	0.098187
	57.000000	0.340835	-0.000277	0.098177
	57.100000	0.340067	-0.000194	0.098182
	57.200000	0.339936	-0.000253	0.098184
	57.300000	0.342025	-0.000293	0.098181
	57.400000	0.341033	-0.000395	0.098182
	57.500000	0.338281	-0.000415	0.098180
	57.600000	0.340149	-0.000441	0.098182
	57.700000	0.339033	-0.000530	0.098184
	57.800000	0.341600	-0.000431	0.098186
	57.900000	0.339480	-0.000464	0.098184
	58.000000	0.341217	-0.000401	0.098185
	58.100000	0.342184	-0.000332	0.098181
	58.200000	0.340840	-0.000401	0.098183
	58.300000	0.339739	-0.000339	0.098185
	58.400000	0.340257	-0.000375	0.098177
	58.500000	0.340625	-0.000253	0.098185
	58.600000	0.341772	-0.000267	0.098183
	58.700000	0.340418	-0.000303	0.098184
	58.800000	0.341507	-0.000313	0.098182
	58.900000	0.341396	-0.000385	0.098184
	59.000000	0.341595	-0.000329	0.098181
	59.100000	0.342557	-0.000448	0.098182
	59.200000	0.343164	-0.000365	0.098183
	59.300000	0.341448	-0.000523	0.098181
	59.400000	0.342230	-0.000477	0.098185
	59.500000	0.342251	-0.000517	0.097480
	59.600000	0.343755	-0.000448	0.098176
	59.700000	0.344885	-0.000484	0.098183
	59.800000	0.344188	-0.000526	0.098182
	59.900000	0.346645	-0.000375	0.098184
	60.000000	0.344166	-0.000500	0.098185
	60.100000	0.345246	-0.000467	0.098181
	60.200000	0.345677	-0.000497	0.098180
	60.300000	0.345842	-0.000589	0.098170
	60.400000	0.345441	-0.000510	0.098178
	60.500000	0.345199	-0.000559	0.098179
	60.600000	0.343674	-0.000362	0.098182
	60.700000	0.346104	-0.000592	0.098190
	60.800000	0.345731	-0.000349	0.098194
	60.900000	0.345530	-5.285559E-5	0.098176
	61.000000	0.345190	-0.000125	0.098187
	61.100000	0.345527	-0.000194	0.098180
	61.200000	0.345640	-0.000316	0.098180
	61.300000	0.346479	-0.000296	0.098181
	61.400000	0.346281	-0.000563	0.098181
	61.500000	0.346130	-0.000415	0.098181
	61.600000	0.347585	-0.000257	0.098177
	61.700000	0.346624	-0.000204	0.098186
	61.800000	0.347179	-0.000175	0.098183
	61.900000	0.344244	-0.000227	0.098178
	62.000000	0.343901	-0.000293	0.098184
	62.100000	0.346121	-0.000339	0.098176
	62.200000	0.346955	-0.000260	0.098180
	62.300000	0.348017	-0.000342	0.098187
	62.400000	0.344955	-0.000309	0.098185
	62.500000	0.348212	-0.000224	0.098178
	62.600000	0.347219	-0.000280	0.098187
	62.700000	0.346888	-0.000411	0.098180
	62.800000	0.346696	-0.000329	0.098181
	62.900000	0.348948	-0.000405	0.098180
	63.000000	0.347116	-0.000382	0.098177
	63.100000	0.348283	-0.000444	0.098186
	63.200000	0.348817	-0.000372	0.098186
	63.300000	0.346367	-0.000405	0.098179
	63.400000	0.347243	-0.000490	0.098187
	63.500000	0.347476	-0.000395	0.098179
	63.600000	0.346974	-0.000352	0.098178
	63.700000	0.348809	-0.000270	0.098175
	63.800000	0.347905	-0.000300	0.098175
	63.900000	0.348475	-0.000306	0.098181
	64.000000	0.348937	-0.000158	0.098185
	64.100000	0.345940	-0.000290	0.098182
	64.200000	0.349234	-0.000346	0.098187
	64.300000	0.349546	-0.000369	0.098183
	64.400000	0.347987	-0.000293	0.098183
	64.500000	0.348681	-0.000230	0.098177
	64.600000	0.348870	-0.000102	0.098179
	64.700000	0.348547	-0.000326	0.098179
	64.800000	0.348118	-0.000178	0.098185
	64.900000	0.349435	-0.000237	0.098181
	65.000000	0.348689	-0.000362	0.098179
	65.100000	0.348926	-0.000346	0.098181
	65.200000	0.349453	-0.000352	0.098185
	65.300000	0.351243	-0.000296	0.098183
	65.400000	0.347598	-0.000221	0.098175
	65.500000	0.349216	-0.000214	0.098181
	65.600000	0.348101	-0.000352	0.098175
	65.700000	0.349820	-0.000253	0.098183
	65.800000	0.348677	-0.000280	0.098189
	65.900000	0.350415	-0.000217	0.098180
	66.000000	0.351977	-0.000355	0.098182
	66.100000	0.350748	-0.000234	0.098181
	66.200000	0.351401	-0.000201	0.098185
	66.300000	0.352325	-0.000270	0.098186
	66.400000	0.351345	-0.000286	0.098183
	66.500000	0.351637	-0.000372	0.098181
	66.600000	0.348332	-0.000290	0.098173
	66.700000	0.350204	-0.000247	0.098186
	66.800000	0.351059	-0.000250	0.098180
	66.900000	0.350388	-0.000263	0.098186
	67.000000	0.350201	-0.000346	0.098181
	67.100000	0.351027	-0.000253	0.098171
	67.200000	0.348193	-0.000329	0.098186
	67.300000	0.349708	-0.000178	0.098175
	67.400000	0.351747	-0.000188	0.098185
	67.500000	0.352151	-0.000260	0.098179
	67.600000	0.350466	-0.000415	0.098182
	67.700000	0.350765	-0.000398	0.098181
	67.800000	0.353107	-0.000388	0.098178
	67.900000	0.350691	-0.000290	0.098182
	68.000000	0.350468	-0.000336	0.098181
	68.100000	0.351340	-0.000494	0.098183
	68.200000	0.349890	-0.000369	0.098175
	68.300000	0.351573	-0.000313	0.098179
	68.400000	0.350907	-0.000401	0.098182
	68.500000	0.349164	-0.000352	0.098182
	68.600000	0.348849	-0.000313	0.098181
	68.700000	0.352654	-0.000378	0.098179
	68.800000	0.350183	-0.000293	0.098178
	68.900000	0.351532	-0.000405	0.098185
	69.000000	0.350185	-0.000451	0.098178
	69.100000	0.352930	-0.000451	0.098181
	69.200000	0.351799	-0.000421	0.098175
	69.300000	0.351305	-0.000362	0.098180
	69.400000	0.352529	-0.000457	0.098175
	69.500000	0.350766	-0.000372	0.098177
	69.600000	0.353526	-0.000293	0.098182
	69.700000	0.351938	-0.000303	0.098178
	69.800000	0.352264	-0.000355	0.098184
	69.900000	0.351596	-0.000526	0.098185
	70.000000	0.352276	-0.000421	0.098185
	70.100000	0.352824	-0.000313	0.098182
	70.200000	0.351923	-0.000536	0.098178
	70.300000	0.354461	-0.000559	0.098183
	70.400000	0.353315	-0.000388	0.098180
	70.500000	0.353195	-0.000546	0.098173
	70.600000	0.352698	-0.000346	0.098186
	70.700000	0.352945	-0.000375	0.098177
	70.800000	0.352379	-0.000490	0.098180
	70.900000	0.351694	-0.000323	0.098177
	71.000000	0.354601	-0.000326	0.098187
	71.100000	0.353058	-0.000204	0.098180
	71.200000	0.352865	-0.000283	0.098185
	71.300000	0.352242	-0.000257	0.098184
	71.400000	0.354378	-0.000342	0.098176
	71.500000	0.352613	-0.000444	0.098180
	71.600000	0.353223	-0.000260	0.098178
	71.700000	0.351985	-0.000352	0.098183
	71.800000	0.356620	-0.000253	0.098174
	71.900000	0.354137	-0.000461	0.098171
	72.000000	0.354908	-0.000349	0.098184
	72.100000	0.352972	-0.000303	0.098178
	72.200000	0.353322	-0.000474	0.098183
	72.300000	0.356096	-0.000474	0.098179
	72.400000	0.351959	-0.000490	0.098180
	72.500000	0.353954	-0.000464	0.098180
	72.600000	0.354656	-0.000329	0.098178
	72.700000	0.353812	-0.000352	0.098184
	72.800000	0.354062	-0.000326	0.098181
	72.900000	0.354550	-0.000434	0.098182
	73.000000	0.353967	-0.000332	0.098179
	73.100000	0.355272	-0.000533	0.098174
	73.200000	0.354380	-0.000352	0.098181
	73.300000	0.355341	-0.000178	0.098182
	73.400000	0.354342	-0.000191	0.098180
	73.500000	0.355516	-0.000277	0.098184
	73.600000	0.352999	-6.930085E-5	0.098181
	73.700000	0.356423	-8.574610E-5	0.098175
	73.800000	0.356785	-8.574610E-5	0.098178
	73.900000	0.354481	-9.232421E-5	0.098181
	74.000000	0.355903	-0.000286	0.098174
	74.100000	0.356483	-0.000280	0.098186
	74.200000	0.356253	-0.000181	0.098184
	74.300000	0.356300	-0.000122	0.098185
	74.400000	0.356632	-8.245705E-5	0.098182
	74.500000	0.352553	-0.000267	0.098181
	74.600000	0.354038	-0.000161	0.098182
	74.700000	0.355551	-0.000286	0.098180
	74.800000	0.357874	-0.000227	0.098178
	74.900000	0.356605	6.226123E-5	0.098183
	75.000000	0.357524	-0.000467	0.098180
	75.100000	0.357008	-0.000536	0.098181
	75.200000	0.354954	-0.000480	0.098180
	75.300000	0.354374	-0.000494	0.098182
	75.400000	0.355049	-0.000543	0.098186
	75.500000	0.357819	-0.000599	0.098181
	75.600000	0.357223	-0.000477	0.098179
	75.700000	0.358265	-0.000336	0.098187
	75.800000	0.354558	-0.000484	0.098169
	75.900000	0.356164	-0.000444	0.098178
	76.000000	0.356420	-0.000523	0.098179
	76.100000	0.357192	-0.000513	0.098180
	76.200000	0.356041	-0.000444	0.098185
	76.300000	0.357519	-0.000589	0.097497
	76.400000	0.355364	-0.000471	0.098181
	76.500000	0.356524	-0.000497	0.098180
	76.600000	0.357470	-0.000550	0.098186
	76.700000	0.356266	-0.000553	0.098177
	76.800000	0.357137	-0.000569	0.098173
	76.900000	0.355786	-0.000388	0.098175
	77.000000	0.356530	-0.000355	0.098180
	77.100000	0.358045	-0.000359	0.098186
	77.200000	0.357875	-0.000355	0.098180
	77.300000	0.356834	-0.000405	0.098174
	77.400000	0.359271	-0.000457	0.098179
	77.500000	0.358134	-0.000415	0.098184
	77.600000	0.357296	-0.000349	0.098181
	77.700000	0.356401	-0.000503	0.098176
	77.800000	0.357950	-0.000346	0.098177
	77.900000	0.357849	-0.000494	0.098172
	78.000000	0.357882	-0.000408	0.098180
	78.100000	0.356832	-0.000471	0.098183
	78.200000	0.357697	-0.000237	0.098183
	78.300000	0.358710	-0.000431	0.098180
	78.400000	0.359083	-0.000395	0.098180
	78.500000	0.358138	-0.000451	0.098180
	78.600000	0.355497	-0.000405	0.098179
	78.700000	0.358198	-0.000273	0.098180
	78.800000	0.361241	-0.000207	0.098179
	78.900000	0.357574	-0.000207	0.098182
	79.000000	0.359866	-0.000336	0.098183
	79.100000	0.357914	-0.000290	0.098183
	79.200000	0.359950	-0.000342	0.098180
	79.300000	0.357891	-0.000375	0.098171
	79.400000	0.359048	-0.000369	0.098182
	79.500000	0.356517	-0.000316	0.098175
	79.600000	0.357965	-0.000303	0.098177
	79.700000	0.358549	-0.000375	0.098179
	79.800000	0.357971	-0.000434	0.098176
	79.900000	0.358172	-0.000316	0.098185
	80.000000	0.358981	-0.000418	0.098184
	80.100000	0.358402	-0.000286	0.098186
	80.200000	0.361246	-0.000286	0.098180
	80.300000	0.358278	-0.000286	0.098181
	80.400000	0.359315	-0.000326	0.098177
	80.500000	0.360085	-0.000247	0.098179
	80.600000	0.358626	-0.000293	0.098185
	80.700000	0.358858	-0.000168	0.098182
	80.800000	0.359647	-0.000155	0.098176
	80.900000	0.361057	-0.000401	0.098174
	81.000000	0.361496	-0.000234	0.098185
	81.100000	0.360479	-0.000263	0.098177
	81.200000	0.360971	-0.000267	0.098177
	81.300000	0.362570	-0.000388	0.098179
	81.400000	0.361009	-0.000355	0.098177
	81.500000	0.360916	-0.000204	0.098181
	81.600000	0.362523	-0.000329	0.098180
	81.700000	0.362165	-0.000214	0.098175
	81.800000	0.360159	-0.000230	0.098181
	81.900000	0.362218	-0.000184	0.098180
	82.000000	0.363175	-0.000277	0.098171
	82.100000	0.363519	-0.000375	0.098184
	82.200000	0.362414	-0.000467	0.098178
	82.300000	0.360448	-0.000471	0.098173
	82.400000	0.364750	-0.000382	0.098175
	82.500000	0.361762	-0.000211	0.098181
	82.600000	0.361432	-0.000286	0.098178
	82.700000	0.364517	-0.000332	0.098178
	82.800000	0.363534	-0.000237	0.098181
	82.900000	0.364554	-0.000309	0.098179
	83.000000	0.362893	-0.000201	0.098177
	83.100000	0.362231	-0.000257	0.098176
	83.200000	0.361985	-0.000277	0.098181
	83.300000	0.361797	-0.000230	0.098172
	83.400000	0.361802	-0.000286	0.098181
	83.500000	0.359993	-0.000230	0.098178
	83.600000	0.364484	-0.000313	0.098185
	83.700000	0.364246	-0.000323	0.098179
	83.800000	0.363334	-0.000221	0.098186
	83.900000	0.362602	-0.000260	0.098175
	84.000000	0.363346	-0.000329	0.098169
	84.100000	0.363820	-0.000273	0.098175
	84.200000	0.362844	-0.000326	0.098178
	84.300000	0.363160	-0.000332	0.098183
	84.400000	0.364453	-0.000336	0.098177
	84.500000	0.364115	-0.000461	0.098185
	84.600000	0.362653	-0.000359	0.098176
	84.700000	0.365783	-0.000309	0.098174
	84.800000	0.365335	-0.000230	0.098179
	84.900000	0.365142	-0.000378	0.098178
	85.000000	0.364146	-0.000336	0.098182
	85.100000	0.365436	-0.000421	0.098183
	85.200000	0.364147	-0.000461	0.098177
	85.300000	0.363219	-0.000336	0.098176
	85.400000	0.363374	-0.000464	0.098180
	85.500000	0.364023	-0.000378	0.098178
	85.600000	0.363670	-0.000471	0.098173
	85.700000	0.363529	-0.000464	0.098178
	85.800000	0.365224	-0.000316	0.098183
	85.900000	0.362488	-0.000382	0.098185
	86.000000	0.365625	-0.000480	0.098182
	86.100000	0.363016	-0.000415	0.098177
	86.200000	0.365234	-0.000490	0.098171
	86.300000	0.363397	-0.000477	0.098178
	86.400000	0.364713	-0.000355	0.098183
	86.500000	0.362943	-0.000474	0.098180
	86.600000	0.363564	-0.000490	0.098170
	86.700000	0.365527	-0.000332	0.098178
	86.800000	0.362998	-0.000283	0.098171
	86.900000	0.364436	-0.000487	0.098179
	87.000000	0.365332	-0.000480	0.098176
	87.100000	0.366831	-0.000382	0.098176
	87.200000	0.363047	-0.000375	0.098181
	87.300000	0.364028	-0.000230	0.098181
	87.400000	0.365220	-0.000115	0.098174
	87.500000	0.362653	-0.000316	0.098173
	87.600000	0.363088	-0.000517	0.098178
	87.700000	0.364758	-0.000329	0.098178
	87.800000	0.363769	-0.000372	0.098182
	87.900000	0.365356	-0.000290	0.098173
	88.000000	0.366294	-0.000247	0.098179
	88.100000	0.364737	-0.000309	0.098179
	88.200000	0.366541	-0.000273	0.098168
	88.300000	0.362500	-0.000188	0.098182
	88.400000	0.363265	-0.000129	0.098184
	88.500000	0.364856	-8.574610E-5	0.098173
	88.600000	0.366034	-0.000227	0.098183
	88.700000	0.364476	-0.000207	0.098172
	88.800000	0.366295	-0.000168	0.098180
	88.900000	0.364766	-0.000145	0.098175
	89.000000	0.366169	-0.000309	0.098182
	89.100000	0.364956	-0.000316	0.098180
	89.200000	0.364632	-0.000349	0.098174
	89.300000	0.365000	-0.000503	0.098179
	89.400000	0.364526	-0.000434	0.098181
	89.500000	0.364332	-0.000346	0.098175
	89.600000	0.365235	-0.000329	0.098180
	89.700000	0.363005	-0.000293	0.098178
	89.800000	0.364749	-0.000425	0.098177
	89.900000	0.364821	-0.000359	0.098176
	90.000000	0.365439	-0.000461	0.098176
	90.100000	0.365957	-0.000418	0.098175
	90.200000	0.365655	-0.000490	0.098178
	90.300000	0.365973	-0.000270	0.098174
	90.400000	0.365906	-0.000253	0.098179
	90.500000	0.366229	-0.000326	0.098181
	90.600000	0.365973	-0.000286	0.098174
	90.700000	0.365877	-0.000313	0.098177
	90.800000	0.365521	-0.000382	0.098171
	90.900000	0.363644	-0.000388	0.098182
	91.000000	0.365581	-0.000270	0.098183
	91.100000	0.366347	-0.000283	0.098180
	91.200000	0.365618	-0.000494	0.098175
	91.300000	0.363112	-0.000336	0.098181
	91.400000	0.365550	-0.000253	0.098181
	91.500000	0.364868	-0.000273	0.098173
	91.600000	0.364991	-0.000290	0.098171
	91.700000	0.366992	-0.000342	0.098179
	91.800000	0.365485	-0.000362	0.098176
	91.900000	0.366779	-0.000313	0.098174
	92.000000	0.365052	-0.000240	0.098182
	92.100000	0.365805	-0.000326	0.098179
	92.200000	0.366314	-0.000438	0.098170
	92.300000	0.364842	-0.000405	0.098180
	92.400000	0.367029	-0.000438	0.098178
	92.500000	0.365959	-0.000418	0.098175
	92.600000	0.367430	-0.000563	0.098179
	92.700000	0.365641	-0.000546	0.098178
	92.800000	0.368003	-0.000448	0.098174
	92.900000	0.364745	-0.000398	0.098181
	93.000000	0.365520	-0.000540	0.098174
	93.100000	0.366886	-0.000494	0.098182
	93.200000	0.366376	-0.000474	0.098175
	93.300000	0.366965	-0.000247	0.098171
	93.400000	0.368044	-0.000155	0.098170
	93.500000	0.366717	-0.000290	0.098183
	93.600000	0.366689	-0.000434	0.098177
	93.700000	0.367245	-0.000408	0.098176
	93.800000	0.365584	-0.000451	0.098170
	93.900000	0.367785	-0.000155	0.098174
	94.000000	0.366810	-0.000280	0.098180
	94.100000	0.366246	-0.000207	0.098174
	94.200000	0.368737	-0.000142	0.098164
	94.300000	0.367637	-0.000221	0.098174
	94.400000	0.367109	-0.000105	0.098179
	94.500000	0.367043	-9.890231E-5	0.098180
	94.600000	0.367440	-0.000313	0.098178
	94.700000	0.366991	-0.000267	0.098172
	94.800000	0.367702	-0.000158	0.098180
	94.900000	0.366888	-1.009791E-5	0.098178
	95.000000	0.366631	-5.285559E-5	0.098172
	95.100000	0.368281	-0.000145	0.098175
	95.200000	0.370081	-0.000105	0.098170
	95.300000	0.369322	-0.000165	0.098169
	95.400000	0.369293	-0.000217	0.098180
	95.500000	0.368351	-0.000273	0.098180
	95.600000	0.367604	-0.000286	0.098175
	95.700000	0.368782	-0.000188	0.098183
	95.800000	0.369013	-0.000303	0.098180
	95.900000	0.368225	-0.000211	0.098177
	96.000000	0.371605	-0.000217	0.098173
	96.100000	0.368072	-0.000237	0.098173
	96.200000	0.367786	-6.930085E-5	0.098182
	96.300000	0.369585	-0.000161	0.098180
	96.400000	0.370236	-9.561326E-5	0.098183
	96.500000	0.368158	-8.245705E-5	0.098170
	96.600000	0.368154	-0.000119	0.098171
	96.700000	0.368025	-0.000224	0.098168
	96.800000	0.366386	-0.000165	0.098176
	96.900000	0.369004	-0.000224	0.098174
	97.000000	0.370835	-0.000253	0.098173
	97.100000	0.369749	-0.000313	0.098176
	97.200000	0.369975	-0.000115	0.098176
	97.300000	0.369068	-0.000204	0.098173
	97.400000	0.368216	-9.561326E-5	0.098178
	97.500000	0.370524	-0.000270	0.098180
	97.600000	0.369053	-0.000323	0.098180
	97.700000	0.371186	-6.930085E-5	0.098179
	97.800000	0.370769	-0.000290	0.098176
	97.900000	0.368926	-0.000244	0.098183
	98.000000	0.369368	-0.000148	0.098177
	98.100000	0.370032	-0.000263	0.098180
	98.200000	0.370857	-0.000362	0.098180
	98.300000	0.368853	-0.000316	0.098170
	98.400000	0.371843	-0.000352	0.098176
	98.500000	0.370653	-0.000372	0.098172
	98.600000	0.370646	-0.000398	0.098176
	98.700000	0.369976	-0.000369	0.098177
	98.800000	0.370050	-0.000365	0.098176
	98.900000	0.367951	-0.000316	0.098177
	99.000000	0.372112	-0.000247	0.098179
	99.100000	0.371171	-0.000342	0.098171
	99.200000	0.368952	-0.000267	0.098179
	99.300000	0.369186	-0.000253	0.098175
	99.400000	0.369670	-0.000296	0.098181
	99.500000	0.370279	-0.000217	0.098176
	99.600000	0.369217	-0.000155	0.098176
	99.700000	0.369915	-0.000122	0.098176
	99.800000	0.370631	-9.561326E-5	0.098175
	99.900000	0.370634	-8.574610E-5	0.098170
	100.000000	0.368988	-0.000112	0.098173
	100.100000	0.370775	-2.325412E-5	0.098175
	100.200000	0.370358	-6.601179E-5	0.098176
	100.300000	0.372376	-0.000257	0.098173
	100.400000	0.371045	-5.943369E-5	0.098175
	100.500000	0.370672	-0.000145	0.098171
	100.600000	0.371226	-0.000204	0.098177
	100.700000	0.368951	-0.000198	0.098173
	100.800000	0.371865	-0.000115	0.098176
	100.900000	0.372445	-0.000105	0.098173
	101.000000	0.370887	-0.000184	0.098174
	101.100000	0.371345	-0.000119	0.098173
	101.200000	0.371252	-0.000152	0.098169
	101.300000	0.371401	-7.258990E-5	0.098174
	101.400000	0.371548	1.292545E-5	0.098174
	101.500000	0.370821	-0.000168	0.098178
	101.600000	0.370722	-0.000145	0.098175
	101.700000	0.371843	-6.601179E-5	0.098174
	101.800000	0.370210	-0.000115	0.098170
	101.900000	0.372274	7.212839E-5	0.098178
	102.000000	0.371796	-0.000168	0.098174
	102.100000	0.370761	-6.601179E-5	0.098176
	102.200000	0.369753	-0.000457	0.098178
	102.300000	0.371055	-0.000138	0.098171
	102.400000	0.372405	-0.000194	0.098173
	102.500000	0.371397	-0.000221	0.098175
	102.600000	0.370348	-0.000257	0.098172
	102.700000	0.371023	-0.000191	0.098172
	102.800000	0.370691	-0.000105	0.098181
	102.900000	0.371278	-6.930085E-5	0.098178
	103.000000	0.372163	-0.000112	0.098171
	103.100000	0.372085	-0.000194	0.098178
	103.200000	0.370236	-0.000283	0.098172
	103.300000	0.372414	-0.000303	0.098171
	103.400000	0.371950	-0.000277	0.098171
	103.500000	0.372478	-0.000135	0.098181
	103.600000	0.370174	-0.000168	0.098174
	103.700000	0.372361	-0.000168	0.098178
	103.800000	0.371466	-0.000129	0.098177
	103.900000	0.371876	-0.000178	0.098175
	104.000000	0.371385	-0.000194	0.098169
	104.100000	0.371783	-0.000201	0.098170
	104.200000	0.371888	-0.000313	0.098175
	104.300000	0.371884	-0.000171	0.098172
	104.400000	0.371733	-0.000201	0.098172
	104.500000	0.374378	-0.000214	0.098176
	104.600000	0.373619	-0.000234	0.098177
	104.700000	0.373640	-9.890231E-5	0.098173
	104.800000	0.373185	4.581597E-5	0.098171
	104.900000	0.372393	-0.000546	0.098182
	105.000000	0.371824	-0.000194	0.098174
	105.100000	0.372899	-0.000277	0.098176
	105.200000	0.374139	-0.000125	0.098169
	105.300000	0.371373	-0.000592	0.098171
	105.400000	0.370894	-9.561326E-5	0.098176
	105.500000	0.372664	-0.000221	0.098174
	105.600000	0.373461	-2.325412E-5	0.098179
	105.700000	0.373064	-0.000253	0.098169
	105.800000	0.373859	-0.000221	0.098169
	105.900000	0.374013	-0.000309	0.098176
	106.000000	0.371852	-0.000175	0.098175
	106.100000	0.373683	-0.000267	0.098168
	106.200000	0.371693	-0.000464	0.098173
	106.300000	0.373552	-0.000119	0.098172
	106.400000	0.372631	-0.000273	0.098176
	106.500000	0.373315	-8.903516E-5	0.098168
	106.600000	0.371942	-3.969938E-5	0.098172
	106.700000	0.372813	-0.000342	0.098167
	106.800000	0.372939	-0.000181	0.098177
	106.900000	0.371692	-0.000109	0.098175
	107.000000	0.373888	-0.000438	0.098172
	107.100000	0.371110	-0.000191	0.098171
	107.200000	0.371659	-0.000122	0.098176
	107.300000	0.371409	-0.000247	0.098173
	107.400000	0.371960	-0.000217	0.098173
	107.500000	0.371980	-0.000237	0.098170
	107.600000	0.374066	-0.000362	0.098176
	107.700000	0.372480	-0.000342	0.098167
	107.800000	0.371720	-0.000342	0.098174
	107.900000	0.372431	-0.000214	0.098164
	108.000000	0.373646	-0.000280	0.098173
	108.100000	0.372608	-0.000168	0.098173
	108.200000	0.375178	-0.000181	0.098173
	108.300000	0.373404	-0.000152	0.098173
	108.400000	0.374358	-0.000221	0.098175
	108.500000	0.374327	-0.000217	0.098172
	108.600000	0.375034	-0.000161	0.098174
	108.700000	0.372248	-0.000188	0.098168
	108.800000	0.372952	-0.000207	0.098171
	108.900000	0.371949	-0.000194	0.098176
	109.000000	0.372532	-0.000165	0.098173
	109.100000	0.372077	-0.000240	0.098184
	109.200000	0.372158	-0.000175	0.098140
	109.300000	0.373899	-7.258990E-5	0.098181
	109.400000	0.372989	-0.000145	0.098172
	109.500000	0.374839	-9.561326E-5	0.098172
	109.600000	0.369227	-0.000230	0.098171
	109.700000	0.372262	-0.000293	0.098178
	109.800000	0.372239	-0.000207	0.098169
	109.900000	0.374199	-0.000244	0.098177
	110.000000	0.375291	-0.000234	0.098172
	110.100000	0.373972	-0.000359	0.098169
	110.200000	0.373723	-0.000329	0.098175
	110.300000	0.373502	-0.000175	0.098174
	110.400000	0.372451	-0.000247	0.098170
	110.500000	0.374512	-0.000349	0.098170
	110.600000	0.372268	-0.000230	0.098172
	110.700000	0.372232	-0.000296	0.098180
	110.800000	0.373449	-0.000326	0.098178
	110.900000	0.373203	-0.000260	0.098177
	111.000000	0.373633	-0.000336	0.098173
	111.100000	0.372380	-0.000273	0.098175
	111.200000	0.373899	-0.000438	0.098177
	111.300000	0.375310	-0.000490	0.098174
	111.400000	0.374989	-0.000349	0.098173
	111.500000	0.376304	-0.000418	0.098172
	111.600000	0.373825	-4.627748E-5	0.098169
	111.700000	0.373659	-6.808859E-6	0.098171
	111.800000	0.373430	-0.000105	0.098179
	111.900000	0.372616	-0.000415	0.098172
	112.000000	0.372505	-0.000313	0.098168
	112.100000	0.373632	-0.000339	0.098168
	112.200000	0.374976	-0.000263	0.098172
	112.300000	0.375179	-0.000178	0.098170
	112.400000	0.373942	-0.000290	0.098174
	112.500000	0.372369	-0.000283	0.098173
	112.600000	0.374495	-0.000155	0.098174
	112.700000	0.371996	-0.000244	0.098173
	112.800000	0.369632	-0.000346	0.098170
	112.900000	0.373166	-0.000375	0.098171
	113.000000	0.373052	-0.000339	0.098171
	113.100000	0.374195	-0.000188	0.098166
	113.200000	0.374244	-0.000119	0.098174
	113.300000	0.376795	-0.000234	0.098171
	113.400000	0.375815	-0.000270	0.098175
	113.500000	0.372236	-0.000263	0.098172
	113.600000	0.372389	-0.000388	0.098175
	113.700000	0.375194	-0.000434	0.098169
	113.800000	0.374472	-0.000296	0.098170
	113.900000	0.373748	-0.000323	0.098178
	114.000000	0.375987	-0.000375	0.098175
	114.100000	0.373433	-0.000405	0.098166
	114.200000	0.376171	-0.000398	0.098169
	114.300000	0.376459	-0.000359	0.098177
	114.400000	0.377021	-0.000230	0.098171
	114.500000	0.374457	-0.000319	0.098168
	114.600000	0.374199	-0.000296	0.098169
	114.700000	0.375845	-0.000319	0.098166
	114.800000	0.374399	-0.000326	0.098174
	114.900000	0.375565	-0.000214	0.098166
	115.000000	0.375434	-0.000319	0.098166
	115.100000	0.375591	-0.000375	0.098167
	115.200000	0.375295	-0.000263	0.098171
	115.300000	0.372558	-0.000270	0.098174
	115.400000	0.371953	-0.000313	0.098171
	115.500000	0.374295	-0.000375	0.098175
	115.600000	0.375212	-0.000309	0.098166
	115.700000	0.374819	-0.000270	0.098174
	115.800000	0.373947	-0.000352	0.098173
	115.900000	0.372021	-0.000392	0.098174
	116.000000	0.374119	-0.000178	0.098172
	116.100000	0.373666	-0.000290	0.098177
	116.200000	0.372588	-0.000326	0.098171
	116.300000	0.372410	-0.000135	0.098173
	116.400000	0.374748	-0.000165	0.098170
	116.500000	0.374173	-0.000280	0.098173
	116.600000	0.373129	-0.000401	0.098170
	116.700000	0.372568	-0.000306	0.098170
	116.800000	0.372420	-0.000306	0.098170
	116.900000	0.373858	-0.000283	0.098172
	117.000000	0.373219	-0.000221	0.098179
	117.100000	0.374072	-0.000480	0.098171
	117.200000	0.373451	-0.000168	0.098172
	117.300000	0.374667	-0.000306	0.098167
	117.400000	0.371929	-0.000392	0.098168
	117.500000	0.371564	-0.000273	0.098173
	117.600000	0.374010	-0.000181	0.098170
	117.700000	0.373881	-0.000395	0.098172
	117.800000	0.376008	-0.000303	0.098175
	117.900000	0.374636	-0.000204	0.098173
	118.000000	0.374205	-0.000204	0.098168
	118.100000	0.373780	-0.000260	0.098167
	118.200000	0.371876	-0.000142	0.098164
	118.300000	0.372880	-0.000250	0.098163
	118.400000	0.373289	-0.000237	0.098164
	118.500000	0.372663	-0.000247	0.098169
	118.600000	0.375151	-0.000171	0.098169
	118.700000	0.372816	-0.000303	0.098176
	118.800000	0.375701	-0.000227	0.098170
	118.900000	0.372714	-0.000214	0.098170
	119.000000	0.376023	-0.000191	0.098170
	119.100000	0.374588	-0.000152	0.098169
	119.200000	0.375059	-0.000313	0.098170
	119.300000	0.374767	-0.000283	0.098171
	119.400000	0.377104	-0.000339	0.098167
	119.500000	0.373681	-0.000280	0.098172
	119.600000	0.374898	-0.000451	0.098170
	119.700000	0.372966	-0.000201	0.098174
	119.800000	0.375205	-0.000227	0.098177
	119.900000	0.376801	-0.000378	0.098169

