LabVIEW Measurement	
Writer_Version	2
Reader_Version	2
Separator	Tab
Decimal_Separator	.
Multi_Headings	Yes
X_Columns	No
Time_Pref	Relative
Operator	stud40
Description	Saved t, TC, RISC, PT100
Date	2023/03/21
Time	19:07:38.0871996879577636719
***End_of_Header***	
	
Channels	4				
Samples	1200	1200	1200	1200	
Date	2023/03/21	2023/03/21	2023/03/21	2023/03/21	
Time	19:07:38.0871996879577636719	19:07:38.0871996879577636719	19:07:38.0871996879577636719	19:07:38.0871996879577636719	
X_Dimension	Time	Time	Time	Time	
X0	0.0000000000000000E+0	0.0000000000000000E+0	0.0000000000000000E+0	0.0000000000000000E+0	
Delta_X	1.000000	1.000000	1.000000	1.000000	
***End_of_Header***					
X_Value	Untitled	Untitled 1	Untitled 2	Untitled 3	Comment
	0.000000	0.379797	-0.000152	0.098072
	0.100000	0.381046	-0.000152	0.098085
	0.200000	0.379391	-0.000244	0.098077
	0.300000	0.382422	-0.000395	0.098075
	0.400000	0.379343	-0.000464	0.098075
	0.500000	0.380425	-0.000550	0.098078
	0.600000	0.380410	-0.000559	0.098075
	0.700000	0.379389	-0.000605	0.098074
	0.800000	0.381261	-0.000500	0.098077
	0.900000	0.380961	-0.000415	0.098081
	1.000000	0.381087	8.169053	0.098084
	1.100000	0.380840	9.934888	0.098078
	1.200000	0.379909	9.934430	0.098084
	1.300000	0.379450	9.934575	0.098076
	1.400000	0.382286	9.934463	0.098086
	1.500000	0.380337	9.934312	0.098075
	1.600000	0.381921	9.934420	0.098075
	1.700000	0.381011	9.934460	0.098078
	1.800000	0.381290	9.934453	0.098077
	1.900000	0.383106	9.934516	0.098079
	2.000000	0.380314	9.934493	0.098074
	2.100000	0.381353	9.934404	0.098078
	2.200000	0.381162	9.934434	0.098079
	2.300000	0.384830	9.934513	0.098069
	2.400000	0.381568	9.934634	0.098073
	2.500000	0.382214	2.832001	0.098092
	2.600000	0.382627	-0.000569	0.098076
	2.700000	0.381337	-0.000283	0.098073
	2.800000	0.380863	-0.000201	0.098081
	2.900000	0.380237	-0.000217	0.098077
	3.000000	0.379013	-0.000224	0.098081
	3.100000	0.381395	-0.000329	0.098077
	3.200000	0.381544	-0.000237	0.098075
	3.300000	0.380024	-0.000346	0.098083
	3.400000	0.381407	-0.000280	0.098081
	3.500000	0.379857	-0.000293	0.098080
	3.600000	0.380276	-0.000332	0.098074
	3.700000	0.380516	-0.000474	0.098073
	3.800000	0.379598	-0.000438	0.098076
	3.900000	0.381129	-0.000405	0.098077
	4.000000	0.379944	-0.000392	0.098076
	4.100000	0.380350	-0.000411	0.098074
	4.200000	0.379265	-0.000520	0.098076
	4.300000	0.379527	-0.000566	0.098068
	4.400000	0.378403	-0.000375	0.098077
	4.500000	0.378918	-0.000487	0.098076
	4.600000	0.376879	-0.000401	0.098078
	4.700000	0.377882	-0.000359	0.098067
	4.800000	0.379701	-5.943369E-5	0.098072
	4.900000	0.377101	-0.000253	0.098078
	5.000000	0.378614	-0.000589	0.098064
	5.100000	0.376307	-0.000543	0.098074
	5.200000	0.377975	-0.000451	0.098078
	5.300000	0.378116	-0.000451	0.098079
	5.400000	0.376299	-0.000411	0.098070
	5.500000	0.375351	-0.000497	0.098068
	5.600000	0.376099	-0.000300	0.098078
	5.700000	0.374335	-0.000461	0.098072
	5.800000	0.372071	-0.000349	0.098077
	5.900000	0.372317	-0.000382	0.098084
	6.000000	0.370276	-0.000359	0.098079
	6.100000	0.370158	-0.000411	0.098067
	6.200000	0.370895	-0.000359	0.098089
	6.300000	0.367256	-0.000296	0.098077
	6.400000	0.367437	-0.000145	0.098079
	6.500000	0.366370	-0.000365	0.098080
	6.600000	0.364690	-0.000260	0.098070
	6.700000	0.361117	-0.000296	0.098078
	6.800000	0.361995	-0.000336	0.098072
	6.900000	0.359459	-0.000523	0.098077
	7.000000	0.358018	-0.000477	0.098073
	7.100000	0.358246	-0.000346	0.098075
	7.200000	0.355570	-0.000480	0.098080
	7.300000	0.355251	-0.000487	0.098074
	7.400000	0.353935	-0.000431	0.098071
	7.500000	0.353152	-0.000494	0.098079
	7.600000	0.350811	-0.000369	0.098074
	7.700000	0.349896	-0.000375	0.098075
	7.800000	0.347621	-0.000369	0.098083
	7.900000	0.349260	-0.000411	0.098078
	8.000000	0.345202	-0.000355	0.098068
	8.100000	0.343528	-0.000342	0.098073
	8.200000	0.342844	-0.000303	0.098080
	8.300000	0.341478	-0.000369	0.098078
	8.400000	0.340575	-0.000411	0.098078
	8.500000	0.338039	-0.000464	0.098078
	8.600000	0.336407	-0.000313	0.098078
	8.700000	0.336762	-0.000263	0.098077
	8.800000	0.331770	-0.000359	0.098082
	8.900000	0.330757	-0.000326	0.098081
	9.000000	0.329183	-0.000349	0.098078
	9.100000	0.327201	-0.000293	0.098065
	9.200000	0.325267	-0.000267	0.098077
	9.300000	0.324190	-0.000224	0.098071
	9.400000	0.323358	-0.000240	0.098077
	9.500000	0.319407	-0.000263	0.098080
	9.600000	0.320519	-0.000214	0.098073
	9.700000	0.320595	-0.000204	0.098083
	9.800000	0.317724	-0.000323	0.098067
	9.900000	0.315907	-0.000342	0.098081
	10.000000	0.314112	-0.000250	0.098071
	10.100000	0.314587	-0.000303	0.098067
	10.200000	0.311857	-0.000332	0.098071
	10.300000	0.310060	-0.000293	0.098077
	10.400000	0.312177	-0.000306	0.098076
	10.500000	0.306690	-0.000411	0.098077
	10.600000	0.306673	-0.000188	0.098078
	10.700000	0.305637	-0.000224	0.098078
	10.800000	0.304957	-0.000342	0.098075
	10.900000	0.299337	-0.000398	0.098067
	11.000000	0.303592	-0.000513	0.098084
	11.100000	0.299374	-0.000513	0.098076
	11.200000	0.299180	-0.000556	0.098078
	11.300000	0.296024	-0.000388	0.098076
	11.400000	0.294754	-0.000306	0.098076
	11.500000	0.293100	-0.000319	0.098078
	11.600000	0.293771	-0.000270	0.098074
	11.700000	0.291877	-0.000408	0.098074
	11.800000	0.290551	-0.000398	0.098076
	11.900000	0.292041	-0.000224	0.098079
	12.000000	0.288670	-0.000214	0.098075
	12.100000	0.292236	-0.000158	0.098073
	12.200000	0.287890	-0.000250	0.098068
	12.300000	0.285872	-0.000342	0.098074
	12.400000	0.285575	-0.000260	0.098077
	12.500000	0.283375	-0.000250	0.098081
	12.600000	0.279971	-0.000277	0.098077
	12.700000	0.282249	-0.000355	0.098069
	12.800000	0.280899	-0.000201	0.098084
	12.900000	0.279529	-0.000306	0.098086
	13.000000	0.277808	-0.000280	0.098077
	13.100000	0.277627	-0.000102	0.098076
	13.200000	0.275934	-0.000204	0.098076
	13.300000	0.275591	-0.000398	0.098075
	13.400000	0.274205	-0.000277	0.098078
	13.500000	0.272675	-0.000415	0.098082
	13.600000	0.272576	-0.000448	0.098069
	13.700000	0.272459	-0.000303	0.098072
	13.800000	0.271304	-0.000346	0.098074
	13.900000	0.269614	-0.000270	0.098076
	14.000000	0.270319	-0.000392	0.098072
	14.100000	0.266372	-0.000283	0.098077
	14.200000	0.268336	-0.000359	0.098074
	14.300000	0.269379	-0.000369	0.098076
	14.400000	0.264623	-0.000303	0.098078
	14.500000	0.265951	-0.000237	0.098075
	14.600000	0.266524	-0.000306	0.098079
	14.700000	0.264765	-0.000263	0.098080
	14.800000	0.262131	-0.000352	0.098077
	14.900000	0.264973	-0.000464	0.098070
	15.000000	0.261497	-0.000378	0.098076
	15.100000	0.262220	-0.000418	0.098077
	15.200000	0.261061	-0.000296	0.098073
	15.300000	0.261720	-0.000303	0.098079
	15.400000	0.259699	-0.000329	0.098072
	15.500000	0.259088	-0.000267	0.098070
	15.600000	0.259279	-0.000329	0.098076
	15.700000	0.258697	-0.000303	0.098078
	15.800000	0.258414	-0.000326	0.098074
	15.900000	0.257809	-0.000359	0.098079
	16.000000	0.257278	-0.000240	0.098079
	16.100000	0.256135	-0.000214	0.098075
	16.200000	0.255614	-0.000378	0.098074
	16.300000	0.255274	-0.000224	0.098079
	16.400000	0.255137	-0.000378	0.098077
	16.500000	0.253439	-0.000349	0.098084
	16.600000	0.253875	-0.000260	0.098083
	16.700000	0.253729	-0.000211	0.098076
	16.800000	0.253004	-0.000441	0.098080
	16.900000	0.251939	-0.000359	0.098082
	17.000000	0.253874	-0.000300	0.098073
	17.100000	0.254743	-0.000316	0.098080
	17.200000	0.253279	-0.000352	0.098076
	17.300000	0.252743	-0.000280	0.098078
	17.400000	0.252872	-0.000405	0.098080
	17.500000	0.253454	-0.000369	0.098071
	17.600000	0.254275	-0.000592	0.098078
	17.700000	0.254475	-0.000388	0.098072
	17.800000	0.254500	-0.000444	0.098074
	17.900000	0.251664	-0.000411	0.098072
	18.000000	0.253425	-0.000352	0.098074
	18.100000	0.253974	-0.000270	0.098072
	18.200000	0.252158	-0.000503	0.098075
	18.300000	0.252956	-0.000434	0.098072
	18.400000	0.253150	-0.000385	0.098074
	18.500000	0.253818	-0.000428	0.098076
	18.600000	0.251345	-0.000372	0.098075
	18.700000	0.249791	-0.000267	0.098075
	18.800000	0.249507	-0.000388	0.098071
	18.900000	0.251389	-0.000451	0.098075
	19.000000	0.249574	-0.000346	0.098077
	19.100000	0.249561	-0.000375	0.098072
	19.200000	0.248064	-0.000395	0.098074
	19.300000	0.248227	-0.000398	0.098078
	19.400000	0.249724	-0.000385	0.098078
	19.500000	0.250517	-0.000415	0.098073
	19.600000	0.248269	-0.000408	0.098069
	19.700000	0.247009	-0.000365	0.098082
	19.800000	0.248711	-0.000290	0.098071
	19.900000	0.249016	-0.000428	0.098071
	20.000000	0.247092	-0.000309	0.098077
	20.100000	0.248980	-0.000250	0.098078
	20.200000	0.249746	-0.000135	0.098085
	20.300000	0.247972	-0.000293	0.098077
	20.400000	0.247787	-0.000428	0.098069
	20.500000	0.247750	-0.000273	0.098079
	20.600000	0.249234	-0.000319	0.098078
	20.700000	0.248951	-0.000323	0.098071
	20.800000	0.247426	-0.000349	0.098079
	20.900000	0.248278	-0.000250	0.098080
	21.000000	0.248049	-0.000336	0.098077
	21.100000	0.248062	-0.000441	0.098073
	21.200000	0.248533	-0.000378	0.098073
	21.300000	0.249041	-0.000401	0.098074
	21.400000	0.248113	-0.000421	0.098066
	21.500000	0.248432	-0.000204	0.098074
	21.600000	0.248738	-0.000451	0.098082
	21.700000	0.249333	-0.000346	0.098070
	21.800000	0.246448	-0.000388	0.098070
	21.900000	0.246410	-0.000438	0.098074
	22.000000	0.249962	-0.000375	0.098071
	22.100000	0.248266	-0.000500	0.098082
	22.200000	0.249849	-0.000388	0.098069
	22.300000	0.249495	-0.000421	0.098071
	22.400000	0.247356	-0.000513	0.098069
	22.500000	0.246040	-0.000431	0.098077
	22.600000	0.249156	-0.000503	0.098072
	22.700000	0.248639	-0.000365	0.098078
	22.800000	0.247197	-0.000405	0.098072
	22.900000	0.247236	-0.000540	0.098077
	23.000000	0.247023	-0.000434	0.098078
	23.100000	0.247598	-0.000395	0.098072
	23.200000	0.248195	-0.000487	0.098081
	23.300000	0.249839	-0.000375	0.098077
	23.400000	0.248506	-0.000293	0.098076
	23.500000	0.248064	-0.000342	0.098071
	23.600000	0.250571	-0.000280	0.098066
	23.700000	0.250080	-0.000309	0.098074
	23.800000	0.251820	-0.000369	0.098070
	23.900000	0.249526	-0.000441	0.098071
	24.000000	0.252439	-0.000431	0.098071
	24.100000	0.250293	-0.000425	0.098080
	24.200000	0.252039	-0.000332	0.098078
	24.300000	0.252214	-0.000395	0.098073
	24.400000	0.248918	-0.000362	0.098070
	24.500000	0.248339	-0.000405	0.098072
	24.600000	0.250879	-0.000286	0.098069
	24.700000	0.249324	-0.000359	0.098073
	24.800000	0.250310	-0.000346	0.098070
	24.900000	0.252040	-0.000425	0.098074
	25.000000	0.251721	-0.000451	0.098071
	25.100000	0.251505	-0.000346	0.098081
	25.200000	0.253185	-0.000425	0.098081
	25.300000	0.252741	-0.000323	0.098077
	25.400000	0.252417	-0.000336	0.098071
	25.500000	0.253379	-0.000438	0.098070
	25.600000	0.253507	-0.000461	0.098073
	25.700000	0.256018	-0.000352	0.098079
	25.800000	0.253326	-0.000263	0.098081
	25.900000	0.254046	-0.000418	0.098071
	26.000000	0.252394	-0.000355	0.098071
	26.100000	0.254757	-0.000388	0.098078
	26.200000	0.253618	-0.000323	0.098080
	26.300000	0.254535	-0.000316	0.098077
	26.400000	0.253941	-0.000355	0.098073
	26.500000	0.254401	-0.000375	0.098074
	26.600000	0.256432	-0.000267	0.098072
	26.700000	0.256437	-0.000398	0.098078
	26.800000	0.256502	-0.000234	0.098077
	26.900000	0.255756	-0.000207	0.098078
	27.000000	0.255877	-0.000217	0.098078
	27.100000	0.257553	-0.000296	0.098073
	27.200000	0.253640	-0.000352	0.098072
	27.300000	0.256343	-0.000388	0.098076
	27.400000	0.256300	-0.000323	0.098081
	27.500000	0.258437	-0.000369	0.097235
	27.600000	0.256546	-0.000257	0.098071
	27.700000	0.257098	-0.000178	0.098069
	27.800000	0.256610	-0.000362	0.098076
	27.900000	0.259062	-0.000349	0.098078
	28.000000	0.258739	-0.000293	0.098075
	28.100000	0.255956	-0.000290	0.098075
	28.200000	0.257740	-0.000280	0.098076
	28.300000	0.258431	-0.000221	0.098078
	28.400000	0.257854	-0.000283	0.098072
	28.500000	0.257914	-0.000385	0.098072
	28.600000	0.259472	-0.000175	0.098079
	28.700000	0.258547	-0.000477	0.098075
	28.800000	0.257702	-0.000277	0.098074
	28.900000	0.260516	-0.000398	0.098074
	29.000000	0.260982	-0.000237	0.097831
	29.100000	0.259333	-0.000349	0.098076
	29.200000	0.261908	-0.000375	0.098073
	29.300000	0.261203	-0.000385	0.098083
	29.400000	0.261233	-0.000247	0.098077
	29.500000	0.260735	-0.000227	0.098070
	29.600000	0.260698	-0.000234	0.098076
	29.700000	0.260884	-0.000536	0.098070
	29.800000	0.263537	-0.000217	0.098074
	29.900000	0.259568	-0.000138	0.098078
	30.000000	0.263591	-0.000227	0.098069
	30.100000	0.262942	-0.000306	0.098078
	30.200000	0.261806	-0.000224	0.098069
	30.300000	0.260970	-0.000441	0.098075
	30.400000	0.262467	-0.000349	0.098080
	30.500000	0.262562	-0.000526	0.098074
	30.600000	0.261658	-0.000622	0.098075
	30.700000	0.261827	-6.808859E-6	0.098082
	30.800000	0.263303	-4.956653E-5	0.098061
	30.900000	0.262386	-0.000211	0.098068
	31.000000	0.263536	-0.000165	0.098079
	31.100000	0.261975	-0.000178	0.098078
	31.200000	0.263693	-0.000135	0.098078
	31.300000	0.263736	-0.000273	0.098071
	31.400000	0.264450	-9.890231E-5	0.098076
	31.500000	0.265637	-0.000214	0.098077
	31.600000	0.263614	-0.000247	0.098078
	31.700000	0.265324	-0.000257	0.098072
	31.800000	0.266353	-0.000332	0.098079
	31.900000	0.264877	-0.000207	0.098075
	32.000000	0.266171	-0.000224	0.098077
	32.100000	0.266373	-0.000398	0.098075
	32.200000	0.266397	-0.000198	0.098075
	32.300000	0.266301	-0.000188	0.098067
	32.400000	0.269673	-0.000355	0.098079
	32.500000	0.268436	-0.000257	0.098069
	32.600000	0.265747	-0.000234	0.098081
	32.700000	0.267981	-0.000247	0.098077
	32.800000	0.269635	-0.000306	0.098083
	32.900000	0.268258	-0.000283	0.098075
	33.000000	0.268574	-0.000260	0.098078
	33.100000	0.270200	-0.000129	0.098074
	33.200000	0.269518	-8.903516E-5	0.098076
	33.300000	0.270564	-0.000175	0.098080
	33.400000	0.270448	-0.000296	0.098077
	33.500000	0.270713	-0.000161	0.098077
	33.600000	0.270239	-0.000142	0.098064
	33.700000	0.271212	-0.000142	0.098072
	33.800000	0.269478	-0.000234	0.098069
	33.900000	0.272655	-0.000214	0.098077
	34.000000	0.270227	-0.000155	0.098076
	34.100000	0.271052	-0.000135	0.098067
	34.200000	0.271785	-8.903516E-5	0.098064
	34.300000	0.270707	-0.000105	0.098083
	34.400000	0.270892	-0.000250	0.098076
	34.500000	0.271165	-0.000145	0.098077
	34.600000	0.271782	-0.000158	0.098076
	34.700000	0.273299	-0.000155	0.098066
	34.800000	0.272120	-0.000240	0.098073
	34.900000	0.273855	-0.000230	0.098078
	35.000000	0.272691	-0.000270	0.098071
	35.100000	0.273112	-0.000129	0.098077
	35.200000	0.272549	-0.000316	0.098070
	35.300000	0.272315	-0.000188	0.098070
	35.400000	0.275197	-0.000119	0.098075
	35.500000	0.275759	-0.000135	0.098076
	35.600000	0.276236	-0.000244	0.098072
	35.700000	0.276912	-0.000152	0.098063
	35.800000	0.275706	-0.000178	0.098079
	35.900000	0.276695	-0.000230	0.098075
	36.000000	0.275547	-0.000342	0.098078
	36.100000	0.276447	-0.000240	0.098082
	36.200000	0.276737	-0.000375	0.098083
	36.300000	0.276633	-0.000175	0.098074
	36.400000	0.277303	-0.000184	0.098065
	36.500000	0.276382	-5.614464E-5	0.098076
	36.600000	0.276777	-0.000332	0.098075
	36.700000	0.277836	-0.000178	0.098083
	36.800000	0.278736	-0.000336	0.098077
	36.900000	0.277574	-0.000135	0.098073
	37.000000	0.277750	-0.000194	0.098070
	37.100000	0.279677	-0.000171	0.098068
	37.200000	0.277840	-0.000388	0.098075
	37.300000	0.279337	-0.000457	0.098069
	37.400000	0.278714	-0.000198	0.098077
	37.500000	0.280815	-9.890231E-5	0.098068
	37.600000	0.281434	-5.285559E-5	0.098070
	37.700000	0.281578	-0.000217	0.098071
	37.800000	0.278673	-0.000207	0.098071
	37.900000	0.281486	-0.000184	0.098065
	38.000000	0.280384	-0.000138	0.098069
	38.100000	0.281213	-0.000152	0.098071
	38.200000	0.282605	-0.000145	0.098073
	38.300000	0.281514	-0.000158	0.098079
	38.400000	0.281713	-0.000155	0.098070
	38.500000	0.282953	-0.000198	0.098077
	38.600000	0.281674	-0.000168	0.098072
	38.700000	0.278734	-0.000184	0.098070
	38.800000	0.281748	-0.000119	0.098074
	38.900000	0.283046	-0.000191	0.098075
	39.000000	0.282600	-0.000109	0.098069
	39.100000	0.281649	-0.000283	0.098071
	39.200000	0.282658	-0.000230	0.098075
	39.300000	0.283146	-0.000359	0.098073
	39.400000	0.282297	-0.000346	0.098054
	39.500000	0.283317	-0.000152	0.098072
	39.600000	0.283949	-0.000129	0.098058
	39.700000	0.283685	-0.000155	0.098070
	39.800000	0.285195	-0.000207	0.098077
	39.900000	0.285883	-0.000526	0.098075
	40.000000	0.284912	-0.000227	0.098080
	40.100000	0.284267	-0.000198	0.098073
	40.200000	0.284848	-0.000204	0.098072
	40.300000	0.283887	-0.000428	0.098082
	40.400000	0.286465	-0.000138	0.098079
	40.500000	0.287338	-0.000188	0.098067
	40.600000	0.285742	-0.000122	0.098071
	40.700000	0.286376	-8.903516E-5	0.098076
	40.800000	0.287964	-0.000142	0.098075
	40.900000	0.286978	-9.890231E-5	0.098060
	41.000000	0.287015	-0.000474	0.098068
	41.100000	0.286934	-0.000286	0.098074
	41.200000	0.286971	-0.000158	0.098065
	41.300000	0.288851	-6.930085E-5	0.098069
	41.400000	0.287401	-0.000221	0.098072
	41.500000	0.287676	-0.000244	0.097424
	41.600000	0.289090	-0.000369	0.098079
	41.700000	0.289202	-0.000260	0.098072
	41.800000	0.287435	-0.000132	0.098075
	41.900000	0.291821	-0.000329	0.098070
	42.000000	0.290116	-0.000240	0.098072
	42.100000	0.290623	-0.000280	0.098072
	42.200000	0.290242	-0.000273	0.098077
	42.300000	0.289953	-0.000316	0.098074
	42.400000	0.290556	-0.000309	0.098082
	42.500000	0.292007	-0.000253	0.098071
	42.600000	0.292324	-0.000253	0.098079
	42.700000	0.291403	-0.000201	0.098072
	42.800000	0.291539	-0.000362	0.098070
	42.900000	0.291042	-0.000171	0.098073
	43.000000	0.292635	-0.000253	0.098071
	43.100000	0.292270	-0.000339	0.098077
	43.200000	0.291295	-0.000365	0.098071
	43.300000	0.293229	-0.000158	0.098075
	43.400000	0.292559	-0.000398	0.098068
	43.500000	0.294523	-0.000240	0.098072
	43.600000	0.293249	-0.000352	0.098067
	43.700000	0.292345	-0.000168	0.098072
	43.800000	0.293531	-0.000388	0.098079
	43.900000	0.292464	-0.000214	0.098073
	44.000000	0.294440	-0.000227	0.098074
	44.100000	0.294199	-0.000382	0.098075
	44.200000	0.294144	-0.000336	0.098067
	44.300000	0.294229	-0.000283	0.098077
	44.400000	0.295292	-0.000326	0.098075
	44.500000	0.293145	-0.000319	0.098075
	44.600000	0.294962	-0.000378	0.098074
	44.700000	0.294856	-0.000398	0.098076
	44.800000	0.294626	-0.000398	0.098075
	44.900000	0.295550	-0.000392	0.098075
	45.000000	0.296112	-0.000434	0.098081
	45.100000	0.295460	-0.000237	0.098063
	45.200000	0.297728	-0.000290	0.098069
	45.300000	0.295976	-0.000277	0.098082
	45.400000	0.297132	-0.000428	0.098072
	45.500000	0.297867	-0.000260	0.098077
	45.600000	0.298451	-0.000129	0.098076
	45.700000	0.299471	-0.000165	0.098075
	45.800000	0.297617	-0.000165	0.098074
	45.900000	0.298042	-0.000365	0.098078
	46.000000	0.296744	-0.000181	0.098067
	46.100000	0.297199	-0.000326	0.098077
	46.200000	0.299962	-0.000247	0.098076
	46.300000	0.298865	-0.000142	0.098070
	46.400000	0.297808	-0.000224	0.098076
	46.500000	0.300862	-0.000112	0.098065
	46.600000	0.300919	-0.000181	0.098069
	46.700000	0.299048	-0.000247	0.098065
	46.800000	0.300633	-0.000260	0.098071
	46.900000	0.301510	-0.000234	0.098077
	47.000000	0.302434	-0.000168	0.098075
	47.100000	0.300088	-0.000138	0.098066
	47.200000	0.300713	-0.000234	0.098073
	47.300000	0.300793	-0.000263	0.098068
	47.400000	0.302496	-0.000369	0.098072
	47.500000	0.302794	-0.000290	0.098072
	47.600000	0.302321	-7.587895E-5	0.098077
	47.700000	0.302222	-9.232421E-5	0.098070
	47.800000	0.302193	-0.000217	0.098076
	47.900000	0.301822	-0.000158	0.098076
	48.000000	0.302579	-0.000129	0.098073
	48.100000	0.301653	-0.000112	0.098073
	48.200000	0.302508	-0.000165	0.098075
	48.300000	0.305086	-0.000240	0.098029
	48.400000	0.303608	-9.890231E-5	0.098073
	48.500000	0.301736	-0.000273	0.098074
	48.600000	0.304242	-0.000142	0.098070
	48.700000	0.303246	-0.000227	0.098074
	48.800000	0.304766	-0.000250	0.098076
	48.900000	0.304185	-0.000250	0.098075
	49.000000	0.305441	-0.000175	0.098075
	49.100000	0.304550	-0.000240	0.098071
	49.200000	0.303791	-6.930085E-5	0.098075
	49.300000	0.305479	-0.000125	0.098071
	49.400000	0.305196	-7.587895E-5	0.098074
	49.500000	0.304382	-3.519807E-6	0.098072
	49.600000	0.305043	-0.000237	0.098072
	49.700000	0.304802	-0.000273	0.098075
	49.800000	0.306624	-0.000227	0.098071
	49.900000	0.306678	-8.903516E-5	0.098075
	50.000000	0.306841	-0.000178	0.098084
	50.100000	0.306270	-1.996507E-5	0.098068
	50.200000	0.304866	-0.000152	0.098081
	50.300000	0.305311	-0.000178	0.098078
	50.400000	0.306854	-0.000244	0.098072
	50.500000	0.306456	-0.000227	0.098074
	50.600000	0.307095	-0.000227	0.098071
	50.700000	0.307768	-0.000135	0.098072
	50.800000	0.307525	-0.000115	0.098073
	50.900000	0.309073	-0.000306	0.098079
	51.000000	0.309691	-0.000188	0.098077
	51.100000	0.308116	-0.000125	0.098075
	51.200000	0.307903	-4.298843E-5	0.098068
	51.300000	0.307893	-0.000178	0.098068
	51.400000	0.310052	-0.000227	0.098074
	51.500000	0.307665	-0.000204	0.098075
	51.600000	0.309027	-0.000418	0.098076
	51.700000	0.308350	-0.000267	0.098068
	51.800000	0.310454	-0.000234	0.098066
	51.900000	0.307735	-0.000175	0.098079
	52.000000	0.309655	-0.000277	0.098068
	52.100000	0.312195	-0.000211	0.098073
	52.200000	0.310811	-0.000165	0.098077
	52.300000	0.309086	-6.601179E-5	0.098069
	52.400000	0.311274	-6.601179E-5	0.098073
	52.500000	0.310775	-0.000184	0.098068
	52.600000	0.310448	-0.000122	0.098070
	52.700000	0.310601	-8.574610E-5	0.098072
	52.800000	0.310980	-0.000112	0.098070
	52.900000	0.311021	-0.000165	0.098073
	53.000000	0.311086	-0.000290	0.098076
	53.100000	0.311729	-0.000198	0.098069
	53.200000	0.313980	-0.000145	0.098071
	53.300000	0.312732	-6.272274E-5	0.098065
	53.400000	0.314025	-0.000250	0.098070
	53.500000	0.311360	-0.000234	0.098076
	53.600000	0.313038	-0.000142	0.098075
	53.700000	0.311818	-0.000247	0.098067
	53.800000	0.311001	-0.000168	0.098073
	53.900000	0.312012	-0.000158	0.098073
	54.000000	0.312761	-0.000138	0.098075
	54.100000	0.313169	-0.000132	0.098074
	54.200000	0.313883	-4.627748E-5	0.098074
	54.300000	0.311873	-2.307550E-7	0.098077
	54.400000	0.313039	-0.000129	0.098062
	54.500000	0.311777	-0.000119	0.098072
	54.600000	0.313479	-0.000168	0.098066
	54.700000	0.314983	-2.654317E-5	0.098076
	54.800000	0.317425	-0.000145	0.098070
	54.900000	0.315851	-7.916800E-5	0.098073
	55.000000	0.314087	-0.000319	0.098078
	55.100000	0.315522	-3.641033E-5	0.098071
	55.200000	0.314843	-0.000457	0.098074
	55.300000	0.315974	-0.000395	0.098073
	55.400000	0.313433	-5.943369E-5	0.098075
	55.500000	0.315391	-0.000148	0.098067
	55.600000	0.315876	-0.000191	0.098073
	55.700000	0.315340	-0.000451	0.098082
	55.800000	0.315632	-0.000352	0.098073
	55.900000	0.315239	-0.000191	0.098074
	56.000000	0.318100	-0.000260	0.098070
	56.100000	0.317271	-0.000214	0.098069
	56.200000	0.317863	-0.000207	0.098067
	56.300000	0.317888	-0.000155	0.098078
	56.400000	0.317785	-0.000161	0.098071
	56.500000	0.317578	-7.916800E-5	0.098076
	56.600000	0.319799	-6.272274E-5	0.098074
	56.700000	0.318633	-6.272274E-5	0.098070
	56.800000	0.317569	-0.000145	0.098072
	56.900000	0.319219	-0.000161	0.098067
	57.000000	0.320041	-9.561326E-5	0.098071
	57.100000	0.318996	-0.000112	0.098070
	57.200000	0.319529	-8.903516E-5	0.098072
	57.300000	0.318533	-0.000178	0.098069
	57.400000	0.320486	-0.000263	0.098068
	57.500000	0.321472	-0.000217	0.098068
	57.600000	0.318662	-0.000270	0.098069
	57.700000	0.320218	-0.000138	0.098072
	57.800000	0.320852	-0.000152	0.098073
	57.900000	0.321141	-0.000253	0.098077
	58.000000	0.320988	-0.000178	0.098072
	58.100000	0.321084	-0.000227	0.098069
	58.200000	0.319508	-0.000224	0.098067
	58.300000	0.319433	-0.000198	0.098072
	58.400000	0.321080	-0.000145	0.098064
	58.500000	0.322533	-0.000211	0.098071
	58.600000	0.320903	-0.000194	0.098077
	58.700000	0.320557	-0.000138	0.098065
	58.800000	0.323350	-0.000250	0.098083
	58.900000	0.323358	-7.916800E-5	0.098076
	59.000000	0.323136	-0.000201	0.098069
	59.100000	0.323747	-0.000319	0.098077
	59.200000	0.322639	-0.000109	0.098075
	59.300000	0.321667	-0.000234	0.098074
	59.400000	0.321596	-0.000191	0.098071
	59.500000	0.322899	-0.000313	0.098073
	59.600000	0.322374	-0.000125	0.098073
	59.700000	0.323372	-0.000138	0.098074
	59.800000	0.325680	-0.000165	0.098076
	59.900000	0.324176	-0.000171	0.098072
	60.000000	0.322976	-0.000191	0.098069
	60.100000	0.323905	-0.000168	0.098071
	60.200000	0.325836	-0.000365	0.098069
	60.300000	0.324211	-0.000599	0.098065
	60.400000	0.325156	-0.000342	0.098080
	60.500000	0.325135	-0.000142	0.098068
	60.600000	0.324024	-0.000263	0.098070
	60.700000	0.325378	-0.000300	0.098075
	60.800000	0.324609	-0.000375	0.098074
	60.900000	0.324918	-0.000362	0.098079
	61.000000	0.324773	-0.000467	0.098062
	61.100000	0.326141	-0.000194	0.098069
	61.200000	0.326240	-0.000290	0.098073
	61.300000	0.327587	-0.000313	0.098074
	61.400000	0.327522	-0.000253	0.098077
	61.500000	0.326240	-0.000286	0.098064
	61.600000	0.325594	-0.000326	0.098077
	61.700000	0.326477	-0.000240	0.098070
	61.800000	0.324853	-0.000244	0.098065
	61.900000	0.328264	-0.000270	0.098068
	62.000000	0.327703	-0.000221	0.098067
	62.100000	0.326535	-0.000171	0.098073
	62.200000	0.324419	-0.000201	0.098066
	62.300000	0.327270	-0.000280	0.098068
	62.400000	0.328994	-0.000221	0.098071
	62.500000	0.325346	-0.000224	0.098070
	62.600000	0.327980	-0.000336	0.098063
	62.700000	0.328274	-0.000454	0.098072
	62.800000	0.327915	-0.000369	0.096778
	62.900000	0.325380	-0.000487	0.098080
	63.000000	0.325089	-0.000395	0.098072
	63.100000	0.325294	-0.000375	0.098070
	63.200000	0.327296	-0.000346	0.098061
	63.300000	0.327647	-0.000237	0.098071
	63.400000	0.328395	-0.000329	0.098068
	63.500000	0.328518	-0.000290	0.098066
	63.600000	0.327968	-0.000234	0.098076
	63.700000	0.328714	-0.000198	0.098075
	63.800000	0.329692	-0.000237	0.098079
	63.900000	0.327511	-0.000339	0.098077
	64.000000	0.325977	-0.000290	0.098078
	64.100000	0.329065	-0.000280	0.098068
	64.200000	0.328374	-0.000207	0.098072
	64.300000	0.328779	-0.000309	0.098074
	64.400000	0.330138	-0.000398	0.098076
	64.500000	0.327431	-0.000342	0.098068
	64.600000	0.330051	-0.000434	0.098075
	64.700000	0.328123	-0.000385	0.098076
	64.800000	0.330549	-0.000362	0.098071
	64.900000	0.330297	-0.000313	0.098070
	65.000000	0.330009	-0.000316	0.098068
	65.100000	0.328987	-0.000451	0.098066
	65.200000	0.328304	-0.000448	0.098069
	65.300000	0.329388	-0.000457	0.098068
	65.400000	0.330459	-0.000375	0.098073
	65.500000	0.328261	-0.000530	0.098073
	65.600000	0.330106	-0.000490	0.098069
	65.700000	0.330971	-0.000346	0.098070
	65.800000	0.330410	-0.000477	0.098074
	65.900000	0.331405	-0.000467	0.098066
	66.000000	0.331087	-0.000444	0.098067
	66.100000	0.333149	-0.000316	0.098073
	66.200000	0.330681	-0.000490	0.098067
	66.300000	0.331656	-0.000500	0.098072
	66.400000	0.329020	-0.000480	0.098074
	66.500000	0.329598	-0.000457	0.098076
	66.600000	0.332432	-0.000517	0.098063
	66.700000	0.331677	-0.000480	0.098067
	66.800000	0.330697	-0.000467	0.098076
	66.900000	0.333821	-0.000533	0.098063
	67.000000	0.331766	-0.000349	0.098066
	67.100000	0.333832	-0.000461	0.098070
	67.200000	0.334395	-0.000536	0.098070
	67.300000	0.333407	-0.000411	0.098076
	67.400000	0.332357	-0.000300	0.098075
	67.500000	0.333947	-0.000375	0.098070
	67.600000	0.334311	-0.000270	0.098070
	67.700000	0.335214	-0.000494	0.098070
	67.800000	0.334068	-0.000526	0.098072
	67.900000	0.333621	-0.000378	0.098069
	68.000000	0.334611	-0.000543	0.098068
	68.100000	0.334259	-0.000553	0.098063
	68.200000	0.334682	-0.000484	0.098077
	68.300000	0.336400	-0.000408	0.098070
	68.400000	0.334719	-0.000471	0.098075
	68.500000	0.334141	-0.000336	0.098083
	68.600000	0.334406	-0.000461	0.098067
	68.700000	0.334836	-0.000497	0.098068
	68.800000	0.333389	-0.000510	0.098068
	68.900000	0.332620	-0.000599	0.098077
	69.000000	0.334574	-0.000517	0.098075
	69.100000	0.334687	-0.000349	0.098074
	69.200000	0.332876	-0.000503	0.098072
	69.300000	0.335168	-0.000484	0.098068
	69.400000	0.333775	-0.000490	0.098066
	69.500000	0.333195	-0.000454	0.098071
	69.600000	0.334966	-0.000467	0.098073
	69.700000	0.334917	-0.000441	0.098068
	69.800000	0.335235	-0.000441	0.098075
	69.900000	0.334131	-0.000293	0.098072
	70.000000	0.336699	-0.000352	0.098061
	70.100000	0.336114	-0.000352	0.098077
	70.200000	0.336482	-0.000382	0.098079
	70.300000	0.334207	-0.000451	0.098077
	70.400000	0.336743	-0.000313	0.098070
	70.500000	0.335258	-0.000362	0.098073
	70.600000	0.337563	-0.000303	0.098069
	70.700000	0.336771	-0.000211	0.098078
	70.800000	0.336333	-0.000148	0.098072
	70.900000	0.336784	-0.000207	0.098070
	71.000000	0.339567	-0.000201	0.098076
	71.100000	0.337111	-0.000385	0.098073
	71.200000	0.337136	-0.000480	0.098077
	71.300000	0.338368	-0.000198	0.098071
	71.400000	0.336918	-0.000270	0.098078
	71.500000	0.336852	-0.000388	0.098070
	71.600000	0.338374	-0.000286	0.098073
	71.700000	0.338700	-0.000283	0.098069
	71.800000	0.336105	-0.000283	0.098069
	71.900000	0.338008	-0.000260	0.098075
	72.000000	0.337164	-0.000240	0.098077
	72.100000	0.340425	-0.000309	0.098083
	72.200000	0.338288	-0.000316	0.098066
	72.300000	0.337391	-0.000313	0.098065
	72.400000	0.340477	-0.000188	0.098076
	72.500000	0.338729	-0.000319	0.098072
	72.600000	0.340174	-0.000273	0.098069
	72.700000	0.341180	-0.000142	0.098069
	72.800000	0.339771	-0.000168	0.098073
	72.900000	0.341450	-0.000326	0.098062
	73.000000	0.339701	-0.000244	0.098072
	73.100000	0.340040	-0.000293	0.098075
	73.200000	0.341578	-0.000300	0.098074
	73.300000	0.338436	-0.000388	0.098071
	73.400000	0.342587	-0.000201	0.098068
	73.500000	0.339598	-0.000175	0.098078
	73.600000	0.339306	-2.654317E-5	0.098071
	73.700000	0.339602	-0.000313	0.098073
	73.800000	0.341224	-0.000227	0.098069
	73.900000	0.340856	-0.000135	0.098060
	74.000000	0.340874	-0.000148	0.098080
	74.100000	0.339754	-0.000227	0.098063
	74.200000	0.341364	-0.000267	0.098073
	74.300000	0.339418	-0.000286	0.098075
	74.400000	0.339505	-0.000257	0.098069
	74.500000	0.339939	-0.000161	0.098081
	74.600000	0.341373	-0.000253	0.098071
	74.700000	0.340403	-0.000326	0.098072
	74.800000	0.341705	-0.000234	0.098073
	74.900000	0.342050	-0.000326	0.098067
	75.000000	0.339874	-0.000306	0.098071
	75.100000	0.340743	-8.574610E-5	0.098076
	75.200000	0.340931	-0.000145	0.098066
	75.300000	0.341740	-0.000191	0.098072
	75.400000	0.340500	-9.561326E-5	0.098072
	75.500000	0.339461	-0.000234	0.098074
	75.600000	0.340099	-0.000250	0.098073
	75.700000	0.343082	-7.587895E-5	0.098071
	75.800000	0.342231	-0.000270	0.098069
	75.900000	0.342119	-0.000132	0.098071
	76.000000	0.343598	-0.000142	0.098071
	76.100000	0.342436	-0.000188	0.098074
	76.200000	0.343435	-0.000178	0.098079
	76.300000	0.341434	-0.000240	0.098067
	76.400000	0.341143	-0.000237	0.098078
	76.500000	0.343781	-0.000319	0.098065
	76.600000	0.342134	-0.000267	0.098065
	76.700000	0.339937	-0.000309	0.098066
	76.800000	0.342451	-0.000273	0.098073
	76.900000	0.341498	-0.000267	0.098061
	77.000000	0.342816	-0.000290	0.098069
	77.100000	0.340863	-0.000237	0.098082
	77.200000	0.342865	-0.000365	0.098075
	77.300000	0.344087	-0.000313	0.098065
	77.400000	0.342525	-0.000293	0.098073
	77.500000	0.342687	-0.000178	0.098064
	77.600000	0.342149	-0.000378	0.098064
	77.700000	0.342177	-0.000444	0.098068
	77.800000	0.342688	-0.000221	0.098070
	77.900000	0.344161	-0.000217	0.098068
	78.000000	0.345382	-0.000240	0.098064
	78.100000	0.343568	-0.000533	0.098066
	78.200000	0.346295	-0.000168	0.098067
	78.300000	0.346051	-0.000119	0.098066
	78.400000	0.346059	-0.000165	0.098068
	78.500000	0.345511	-0.000346	0.098066
	78.600000	0.345704	-0.000286	0.098073
	78.700000	0.342529	-0.000319	0.098066
	78.800000	0.346019	-0.000306	0.098074
	78.900000	0.347974	-0.000194	0.098067
	79.000000	0.346268	-0.000191	0.098069
	79.100000	0.347445	-0.000105	0.098073
	79.200000	0.345966	-0.000270	0.098069
	79.300000	0.345008	-0.000191	0.098078
	79.400000	0.347497	-0.000178	0.098070
	79.500000	0.347399	-0.000142	0.098065
	79.600000	0.347076	-0.000188	0.098069
	79.700000	0.348138	-0.000227	0.098076
	79.800000	0.345777	-5.943369E-5	0.098073
	79.900000	0.349074	-4.627748E-5	0.098074
	80.000000	0.348863	-0.000273	0.098067
	80.100000	0.347205	-0.000201	0.098070
	80.200000	0.348535	-0.000211	0.098073
	80.300000	0.348807	-0.000250	0.098077
	80.400000	0.349350	-0.000221	0.098067
	80.500000	0.346145	-0.000115	0.098069
	80.600000	0.349167	-0.000191	0.098066
	80.700000	0.349062	-0.000155	0.098066
	80.800000	0.347450	-0.000234	0.098066
	80.900000	0.347821	-0.000165	0.098058
	81.000000	0.347402	-0.000329	0.098075
	81.100000	0.349286	-0.000365	0.098067
	81.200000	0.348553	-4.956653E-5	0.098067
	81.300000	0.348735	-4.627748E-5	0.098071
	81.400000	0.349521	-0.000543	0.098069
	81.500000	0.348506	-0.000263	0.098073
	81.600000	0.349268	-0.000230	0.098067
	81.700000	0.348706	2.279261E-5	0.098072
	81.800000	0.350136	-0.000204	0.098069
	81.900000	0.349165	-0.000267	0.098072
	82.000000	0.349705	-0.000300	0.098071
	82.100000	0.348706	-0.000178	0.098071
	82.200000	0.350351	-0.000161	0.098066
	82.300000	0.350410	-0.000277	0.098075
	82.400000	0.350580	-0.000300	0.098077
	82.500000	0.351113	-0.000234	0.098071
	82.600000	0.349995	-0.000247	0.098071
	82.700000	0.349547	-0.000300	0.098067
	82.800000	0.349831	-0.000237	0.098064
	82.900000	0.349074	-0.000280	0.098071
	83.000000	0.348761	-0.000168	0.098078
	83.100000	0.348636	-0.000125	0.098070
	83.200000	0.350131	-0.000161	0.098070
	83.300000	0.349626	-0.000286	0.098070
	83.400000	0.348793	-0.000250	0.098075
	83.500000	0.347918	-0.000306	0.098070
	83.600000	0.349737	-0.000286	0.098062
	83.700000	0.347810	-0.000227	0.098068
	83.800000	0.348246	-8.574610E-5	0.098075
	83.900000	0.349372	-0.000168	0.098064
	84.000000	0.349937	-0.000152	0.098065
	84.100000	0.348347	-0.000355	0.098069
	84.200000	0.351057	-0.000306	0.098069
	84.300000	0.351811	-0.000408	0.098073
	84.400000	0.351005	-0.000346	0.098072
	84.500000	0.351005	-0.000319	0.098066
	84.600000	0.352267	-0.000329	0.098069
	84.700000	0.351701	-0.000339	0.098071
	84.800000	0.351865	-0.000273	0.098074
	84.900000	0.352013	-0.000240	0.098061
	85.000000	0.351934	-0.000244	0.098061
	85.100000	0.351712	-0.000293	0.098064
	85.200000	0.354107	-0.000346	0.098074
	85.300000	0.350438	-0.000165	0.098073
	85.400000	0.351383	-0.000247	0.098060
	85.500000	0.353377	-0.000286	0.098064
	85.600000	0.350878	-0.000401	0.098070
	85.700000	0.350874	-0.000401	0.098071
	85.800000	0.353335	-0.000309	0.098062
	85.900000	0.351542	-0.000359	0.098066
	86.000000	0.351486	-0.000471	0.098067
	86.100000	0.353032	-0.000454	0.098068
	86.200000	0.353676	-0.000411	0.098064
	86.300000	0.351397	-0.000355	0.098073
	86.400000	0.353266	-0.000240	0.098068
	86.500000	0.351442	-0.000211	0.098067
	86.600000	0.350754	-0.000158	0.097415
	86.700000	0.351028	-0.000323	0.098062
	86.800000	0.350935	-0.000194	0.098066
	86.900000	0.349816	-9.890231E-5	0.098079
	87.000000	0.351901	-0.000198	0.098064
	87.100000	0.353452	-0.000145	0.098068
	87.200000	0.351169	-0.000273	0.098069
	87.300000	0.352363	-0.000237	0.098066
	87.400000	0.352556	-0.000227	0.098072
	87.500000	0.351945	-0.000336	0.098071
	87.600000	0.353397	-0.000181	0.098078
	87.700000	0.354558	-0.000119	0.098070
	87.800000	0.351951	-0.000129	0.098067
	87.900000	0.351517	-8.574610E-5	0.098063
	88.000000	0.353718	-0.000247	0.098065
	88.100000	0.351712	-0.000152	0.098070
	88.200000	0.353506	-0.000168	0.098067
	88.300000	0.352739	-0.000201	0.098072
	88.400000	0.353207	-0.000230	0.098073
	88.500000	0.354507	-0.000237	0.098073
	88.600000	0.353688	-0.000142	0.098068
	88.700000	0.352763	-0.000194	0.098067
	88.800000	0.353287	-0.000280	0.098068
	88.900000	0.353237	-0.000359	0.098070
	89.000000	0.352977	-0.000257	0.098069
	89.100000	0.353768	-0.000362	0.098073
	89.200000	0.354521	-0.000382	0.098064
	89.300000	0.353007	-0.000362	0.098069
	89.400000	0.352953	-0.000332	0.098070
	89.500000	0.353097	-0.000227	0.098067
	89.600000	0.355604	-0.000214	0.098069
	89.700000	0.353072	-0.000270	0.098065
	89.800000	0.353895	-0.000326	0.098067
	89.900000	0.353598	-0.000303	0.098073
	90.000000	0.354358	-0.000293	0.098072
	90.100000	0.354360	-0.000247	0.098065
	90.200000	0.352962	-0.000148	0.098076
	90.300000	0.356764	-0.000362	0.098073
	90.400000	0.354266	-0.000316	0.098076
	90.500000	0.354834	-0.000352	0.098062
	90.600000	0.355057	-0.000388	0.098065
	90.700000	0.355827	-0.000336	0.098074
	90.800000	0.354488	-0.000408	0.098068
	90.900000	0.354668	-0.000362	0.098071
	91.000000	0.354561	-0.000207	0.098066
	91.100000	0.355661	-0.000329	0.098063
	91.200000	0.354146	-0.000323	0.098072
	91.300000	0.354267	-0.000461	0.098065
	91.400000	0.354783	-0.000273	0.098067
	91.500000	0.354853	-0.000352	0.098073
	91.600000	0.354169	-0.000240	0.098074
	91.700000	0.353413	-0.000270	0.098069
	91.800000	0.355583	-0.000214	0.098069
	91.900000	0.354493	-0.000191	0.098080
	92.000000	0.357001	-0.000155	0.098062
	92.100000	0.355846	-0.000342	0.098071
	92.200000	0.357340	-0.000316	0.098073
	92.300000	0.356862	-0.000303	0.098069
	92.400000	0.356255	-0.000309	0.098069
	92.500000	0.355154	-0.000253	0.098072
	92.600000	0.355036	-0.000158	0.098069
	92.700000	0.355405	-0.000188	0.098066
	92.800000	0.354966	-0.000194	0.098061
	92.900000	0.356475	-0.000286	0.098072
	93.000000	0.357466	-0.000155	0.098075
	93.100000	0.357741	-0.000270	0.098064
	93.200000	0.356443	-0.000247	0.098069
	93.300000	0.356950	-0.000142	0.098061
	93.400000	0.357121	-0.000152	0.098066
	93.500000	0.357825	-0.000138	0.098072
	93.600000	0.357368	-0.000224	0.098071
	93.700000	0.358392	-0.000234	0.098066
	93.800000	0.358193	-0.000237	0.098066
	93.900000	0.357441	-0.000207	0.098070
	94.000000	0.357861	-0.000155	0.098063
	94.100000	0.355601	-0.000158	0.098066
	94.200000	0.356082	-0.000198	0.098069
	94.300000	0.358427	-0.000257	0.098067
	94.400000	0.359698	-0.000273	0.098055
	94.500000	0.359133	-0.000211	0.098062
	94.600000	0.357175	-0.000392	0.097630
	94.700000	0.359864	-0.000273	0.098068
	94.800000	0.358156	-0.000293	0.098075
	94.900000	0.361153	-0.000303	0.098064
	95.000000	0.357416	-0.000175	0.098068
	95.100000	0.357472	-0.000201	0.098067
	95.200000	0.358589	-0.000224	0.098064
	95.300000	0.358987	-0.000214	0.098071
	95.400000	0.359520	-0.000178	0.098071
	95.500000	0.358368	-0.000214	0.098067
	95.600000	0.358761	-0.000207	0.098077
	95.700000	0.357816	-0.000326	0.098066
	95.800000	0.360548	-0.000352	0.098073
	95.900000	0.358442	-0.000290	0.098063
	96.000000	0.359316	-0.000194	0.098067
	96.100000	0.360210	-0.000270	0.098077
	96.200000	0.358794	-0.000247	0.098067
	96.300000	0.359499	-0.000378	0.098062
	96.400000	0.361067	-0.000411	0.098075
	96.500000	0.359190	-0.000369	0.098073
	96.600000	0.358374	6.883934E-5	0.098063
	96.700000	0.357908	-4.298843E-5	0.098070
	96.800000	0.360600	-0.000365	0.098066
	96.900000	0.359177	-0.000339	0.098067
	97.000000	0.357136	-0.000375	0.098061
	97.100000	0.361154	-0.000290	0.098061
	97.200000	0.360194	-0.000329	0.098062
	97.300000	0.358089	-0.000247	0.098067
	97.400000	0.357191	-0.000369	0.098063
	97.500000	0.358468	-0.000401	0.098068
	97.600000	0.358667	-0.000286	0.098070
	97.700000	0.357425	-0.000385	0.098065
	97.800000	0.360180	-0.000369	0.098072
	97.900000	0.359221	-0.000316	0.098065
	98.000000	0.358473	-0.000283	0.098067
	98.100000	0.361376	-0.000349	0.098077
	98.200000	0.360338	-0.000230	0.098062
	98.300000	0.361365	-0.000263	0.098066
	98.400000	0.358724	-0.000316	0.098069
	98.500000	0.359949	-0.000346	0.098057
	98.600000	0.359716	-0.000214	0.098069
	98.700000	0.361260	-0.000339	0.098064
	98.800000	0.359627	-0.000263	0.098062
	98.900000	0.361220	-0.000224	0.098060
	99.000000	0.361004	-0.000207	0.098068
	99.100000	0.359902	-0.000115	0.098068
	99.200000	0.361008	-0.000280	0.098057
	99.300000	0.358268	-0.000175	0.098068
	99.400000	0.361032	-0.000204	0.098071
	99.500000	0.361556	-0.000145	0.098068
	99.600000	0.358741	-0.000270	0.098067
	99.700000	0.361074	-0.000556	0.098071
	99.800000	0.361825	-9.561326E-5	0.098070
	99.900000	0.359415	-0.000165	0.098077
	100.000000	0.360978	-0.000194	0.098074
	100.100000	0.359921	-0.000250	0.098069
	100.200000	0.358034	-0.000240	0.098060
	100.300000	0.359978	-0.000326	0.098074
	100.400000	0.359870	-0.000188	0.098071
	100.500000	0.358884	-0.000184	0.098062
	100.600000	0.361785	-0.000129	0.098070
	100.700000	0.361502	-0.000105	0.098061
	100.800000	0.361091	-0.000152	0.098065
	100.900000	0.359529	-0.000221	0.098072
	101.000000	0.361928	-0.000142	0.098063
	101.100000	0.359229	-0.000158	0.098068
	101.200000	0.358488	-0.000260	0.098062
	101.300000	0.362056	-0.000240	0.098057
	101.400000	0.361836	-0.000244	0.098064
	101.500000	0.360704	-0.000184	0.098063
	101.600000	0.362296	-0.000119	0.098073
	101.700000	0.361649	-0.000230	0.098077
	101.800000	0.361876	-0.000221	0.098068
	101.900000	0.360953	-0.000188	0.098070
	102.000000	0.362402	-8.903516E-5	0.098070
	102.100000	0.361024	-0.000168	0.098059
	102.200000	0.362208	-0.000244	0.098072
	102.300000	0.363367	-0.000125	0.098062
	102.400000	0.362597	-5.614464E-5	0.098061
	102.500000	0.362218	-9.232421E-5	0.098070
	102.600000	0.360582	-0.000161	0.098069
	102.700000	0.364009	-0.000563	0.098059
	102.800000	0.362243	-9.890231E-5	0.098075
	102.900000	0.361977	-0.000178	0.098059
	103.000000	0.363148	-0.000184	0.098067
	103.100000	0.362900	-0.000102	0.098062
	103.200000	0.363573	-0.000198	0.098066
	103.300000	0.362513	-0.000263	0.098067
	103.400000	0.361153	-0.000158	0.098066
	103.500000	0.363540	-0.000152	0.098064
	103.600000	0.362109	-0.000158	0.098067
	103.700000	0.362940	-0.000207	0.098070
	103.800000	0.361315	-0.000161	0.098058
	103.900000	0.362272	-0.000109	0.098052
	104.000000	0.360798	-0.000161	0.098068
	104.100000	0.361144	-0.000207	0.098071
	104.200000	0.361442	-9.561326E-5	0.098064
	104.300000	0.362421	-0.000129	0.098071
	104.400000	0.361307	-4.627748E-5	0.098070
	104.500000	0.363540	-0.000178	0.098070
	104.600000	0.361888	-0.000125	0.098060
	104.700000	0.361920	-0.000411	0.098070
	104.800000	0.362970	-5.285559E-5	0.098066
	104.900000	0.361651	-0.000161	0.098069
	105.000000	0.360297	-0.000434	0.098066
	105.100000	0.360041	-0.000175	0.098058
	105.200000	0.363458	-0.000178	0.098074
	105.300000	0.360806	-0.000161	0.098070
	105.400000	0.360164	-0.000270	0.098071
	105.500000	0.361458	-0.000105	0.098068
	105.600000	0.362955	-0.000184	0.098064
	105.700000	0.356581	-0.000211	0.098058
	105.800000	0.360105	-0.000362	0.098063
	105.900000	0.365407	-0.000211	0.098067
	106.000000	0.360868	-0.000283	0.098060
	106.100000	0.362873	-0.000263	0.098067
	106.200000	0.361126	-0.000171	0.098061
	106.300000	0.360953	-0.000152	0.098065
	106.400000	0.363111	-4.956653E-5	0.098066
	106.500000	0.361744	-7.258990E-5	0.098060
	106.600000	0.361571	-0.000138	0.098072
	106.700000	0.359418	-0.000454	0.098061
	106.800000	0.363852	-9.890231E-5	0.098068
	106.900000	0.364257	-0.000138	0.098064
	107.000000	0.362636	-0.000102	0.098065
	107.100000	0.363160	-0.000122	0.098057
	107.200000	0.363111	-0.000217	0.098065
	107.300000	0.363623	-0.000152	0.098068
	107.400000	0.363978	-0.000165	0.098072
	107.500000	0.365401	-0.000165	0.098068
	107.600000	0.367585	-0.000181	0.098067
	107.700000	0.363471	-7.587895E-5	0.098065
	107.800000	0.362672	-0.000263	0.098071
	107.900000	0.365710	-0.000155	0.098070
	108.000000	0.362036	-0.000142	0.098062
	108.100000	0.361067	-6.808859E-6	0.098070
	108.200000	0.361187	-0.000221	0.098072
	108.300000	0.362426	-0.000319	0.098073
	108.400000	0.361733	-9.890231E-5	0.098070
	108.500000	0.361990	-0.000161	0.098060
	108.600000	0.361168	-0.000105	0.098053
	108.700000	0.364360	-0.000122	0.098062
	108.800000	0.362331	-0.000378	0.098058
	108.900000	0.360027	-3.969938E-5	0.098065
	109.000000	0.360512	-0.000237	0.098069
	109.100000	0.361517	-8.574610E-5	0.098056
	109.200000	0.361060	-8.245705E-5	0.098070
	109.300000	0.362143	-0.000158	0.098072
	109.400000	0.362276	1.292545E-5	0.098068
	109.500000	0.363083	-0.000230	0.098063
	109.600000	0.363828	-0.000119	0.098057
	109.700000	0.366043	-0.000227	0.098065
	109.800000	0.364660	-5.614464E-5	0.098063
	109.900000	0.364278	-0.000181	0.098061
	110.000000	0.363065	-0.000332	0.098067
	110.100000	0.362819	-5.285559E-5	0.098071
	110.200000	0.363156	-0.000178	0.098062
	110.300000	0.364099	-0.000142	0.098066
	110.400000	0.361709	-0.000155	0.098071
	110.500000	0.364487	-0.000240	0.098068
	110.600000	0.363694	-0.000214	0.098064
	110.700000	0.362497	-0.000234	0.098064
	110.800000	0.364214	-0.000138	0.098069
	110.900000	0.362451	-0.000152	0.098069
	111.000000	0.362849	-0.000125	0.098074
	111.100000	0.363247	-0.000316	0.098064
	111.200000	0.365178	-0.000263	0.098067
	111.300000	0.364420	-0.000211	0.098067
	111.400000	0.363561	-0.000237	0.098072
	111.500000	0.364569	-0.000184	0.098063
	111.600000	0.365324	-0.000207	0.098057
	111.700000	0.364865	-0.000211	0.098059
	111.800000	0.362083	-0.000175	0.098064
	111.900000	0.360997	-0.000145	0.098068
	112.000000	0.364231	-0.000237	0.098071
	112.100000	0.359684	-0.000105	0.098065
	112.200000	0.363335	-0.000217	0.098065
	112.300000	0.362472	-0.000332	0.098066
	112.400000	0.363801	-0.000306	0.098067
	112.500000	0.362799	-0.000230	0.098063
	112.600000	0.362683	-0.000306	0.098068
	112.700000	0.364475	-0.000267	0.098069
	112.800000	0.362926	-0.000247	0.098065
	112.900000	0.365809	-0.000142	0.098067
	113.000000	0.363279	-0.000168	0.098067
	113.100000	0.363476	-0.000184	0.098063
	113.200000	0.364089	-0.000155	0.098065
	113.300000	0.363715	-0.000267	0.098063
	113.400000	0.363585	-0.000267	0.098068
	113.500000	0.364327	-0.000178	0.098064
	113.600000	0.364488	-0.000211	0.098066
	113.700000	0.364013	2.279261E-5	0.098063
	113.800000	0.365263	-3.969938E-5	0.098064
	113.900000	0.364375	-0.000171	0.098067
	114.000000	0.364560	-6.601179E-5	0.098070
	114.100000	0.362788	-6.808859E-6	0.098065
	114.200000	0.364288	-0.000451	0.098063
	114.300000	0.363223	-6.930085E-5	0.098069
	114.400000	0.362603	-0.000293	0.098060
	114.500000	0.364336	-0.000293	0.098063
	114.600000	0.365871	-0.000240	0.098065
	114.700000	0.364506	-0.000168	0.098070
	114.800000	0.364619	-0.000165	0.098072
	114.900000	0.364608	-0.000122	0.098069
	115.000000	0.366517	-6.601179E-5	0.098064
	115.100000	0.364841	-0.000132	0.098069
	115.200000	0.363378	-0.000385	0.098066
	115.300000	0.366477	-0.000329	0.098063
	115.400000	0.364914	-0.000293	0.098071
	115.500000	0.362904	-0.000240	0.098070
	115.600000	0.365719	-0.000273	0.098066
	115.700000	0.364091	-0.000332	0.098065
	115.800000	0.365902	-0.000257	0.098063
	115.900000	0.367938	-0.000224	0.098063
	116.000000	0.366569	-0.000293	0.098063
	116.100000	0.365824	-0.000342	0.098064
	116.200000	0.364959	-9.890231E-5	0.098063
	116.300000	0.365316	-9.232421E-5	0.098068
	116.400000	0.365267	5.568313E-5	0.098059
	116.500000	0.366457	-0.000326	0.098065
	116.600000	0.366053	-0.000263	0.098069
	116.700000	0.364854	-0.000503	0.098068
	116.800000	0.364337	-0.000408	0.098063
	116.900000	0.366370	-0.000319	0.098068
	117.000000	0.366207	-0.000158	0.098065
	117.100000	0.366553	-0.000359	0.098069
	117.200000	0.365682	-0.000142	0.098059
	117.300000	0.367796	-0.000152	0.098066
	117.400000	0.367436	-0.000388	0.098066
	117.500000	0.366174	-0.000300	0.098066
	117.600000	0.366376	-0.000263	0.098065
	117.700000	0.368484	-0.000240	0.098064
	117.800000	0.366667	-0.000181	0.098065
	117.900000	0.366465	-0.000132	0.098070
	118.000000	0.365652	-0.000250	0.098073
	118.100000	0.365935	-0.000237	0.098069
	118.200000	0.367186	-0.000221	0.098065
	118.300000	0.367568	-0.000224	0.098067
	118.400000	0.366271	-0.000129	0.098064
	118.500000	0.368350	-0.000280	0.098072
	118.600000	0.366177	-0.000290	0.098063
	118.700000	0.366013	-0.000240	0.098069
	118.800000	0.364972	-0.000161	0.098067
	118.900000	0.366586	-0.000375	0.098063
	119.000000	0.366299	-0.000135	0.098067
	119.100000	0.367458	-0.000188	0.098064
	119.200000	0.366195	-0.000253	0.098070
	119.300000	0.368222	-0.000175	0.098069
	119.400000	0.367186	-0.000237	0.098064
	119.500000	0.366820	-0.000148	0.098065
	119.600000	0.366271	-4.627748E-5	0.098067
	119.700000	0.365677	-8.574610E-5	0.098063
	119.800000	0.368575	-0.000129	0.098062
	119.900000	0.366617	-0.000622	0.098061

